"","participant","trial","bin","AVERAGE_IA_0_SAMPLE_COUNT","AVERAGE_IA_0_SAMPLE_COUNT_%","target_count","target_prop","AVERAGE_IA_2_SAMPLE_COUNT","AVERAGE_IA_2_SAMPLE_COUNT_%","IA_1_ID","IA_2_ID","IA_0_ID","ACCURACY","RT","cond","distractor","sentence_id","lex_freq","phonot_freq","sentence","offset_prev_word","onset_v1","onset_c2","onset_c3","onset_v2","offset_target","endSentence","target","version","group","bin_adj"
"1","aes01",89,127,0,0,10,1,0,0,"1: IA_TARGET","2: IA_DISTRACTOR","0: NULL",1,2003,1,"cortó","S01_C1",5696,1.3503,"El agente corta los materiales",743,865,965,1072,1087,1154,2297,"corta",3,"aes",107
"2","aes03",43,127,0,0,10,1,0,0,"1: IA_TARGET","2: IA_DISTRACTOR","0: NULL",1,2043,1,"cortó","S01_C1",5696,1.3503,"El agente corta los materiales",743,865,965,1072,1087,1154,2297,"corta",1,"aes",107
"3","aes05",41,127,0,0,0,0,10,1,"1: IA_TARGET","2: IA_DISTRACTOR","0: NULL",1,2113,1,"cortó","S01_C1",5696,1.3503,"El agente corta los materiales",743,865,965,1072,1087,1154,2297,"corta",3,"aes",107
"4","aes07",86,127,0,0,0,0,10,1,"1: IA_TARGET","2: IA_DISTRACTOR","0: NULL",1,2385,1,"cortó","S01_C1",5696,1.3503,"El agente corta los materiales",743,865,965,1072,1087,1154,2297,"corta",1,"aes",107
"5","aes09",17,127,0,0,0,0,10,1,"1: IA_TARGET","2: IA_DISTRACTOR","0: NULL",1,3229,1,"cortó","S01_C1",5696,1.3503,"El agente corta los materiales",743,865,965,1072,1087,1154,2297,"corta",3,"aes",107
"6","aes11",32,127,0,0,0,0,10,1,"1: IA_TARGET","2: IA_DISTRACTOR","0: NULL",1,2374,1,"cortó","S01_C1",5696,1.3503,"El agente corta los materiales",743,865,965,1072,1087,1154,2297,"corta",1,"aes",107
"7","aes13",100,127,0,0,10,1,0,0,"1: IA_TARGET","2: IA_DISTRACTOR","0: NULL",1,2355,1,"cortó","S01_C1",5696,1.3503,"El agente corta los materiales",743,865,965,1072,1087,1154,2297,"corta",3,"aes",107
"8","aes15",89,127,0,0,10,1,0,0,"1: IA_TARGET","2: IA_DISTRACTOR","0: NULL",1,3393,1,"cortó","S01_C1",5696,1.3503,"El agente corta los materiales",743,865,965,1072,1087,1154,2297,"corta",1,"aes",107
"9","aes17",24,127,0,0,0,0,10,1,"1: IA_TARGET","2: IA_DISTRACTOR","0: NULL",1,2167,1,"cortó","S01_C1",5696,1.3503,"El agente corta los materiales",743,865,965,1072,1087,1154,2297,"corta",3,"aes",107
"10","aes19",65,127,0,0,0,0,10,1,"1: IA_TARGET","2: IA_DISTRACTOR","0: NULL",1,2092,1,"cortó","S01_C1",5696,1.3503,"El agente corta los materiales",743,865,965,1072,1087,1154,2297,"corta",1,"aes",107
"11","aes21",66,127,8,0.8,0,0,2,0.2,"1: IA_TARGET","2: IA_DISTRACTOR","0: NULL",1,2206,1,"cortó","S01_C1",5696,1.3503,"El agente corta los materiales",743,865,965,1072,1087,1154,2297,"corta",3,"aes",107
"12","ams01",65,127,0,0,10,1,0,0,"1: IA_TARGET","2: IA_DISTRACTOR","0: NULL",1,2633,1,"cortó","S01_C1",5696,1.3503,"El agente corta los materiales",743,865,965,1072,1087,1154,2297,"corta",1,"ams",107
"13","ams03",69,127,0,0,0,0,10,1,"1: IA_TARGET","2: IA_DISTRACTOR","0: NULL",1,2540,1,"cortó","S01_C1",5696,1.3503,"El agente corta los materiales",743,865,965,1072,1087,1154,2297,"corta",3,"ams",107
"14","ams05",20,127,0,0,0,0,10,1,"1: IA_TARGET","2: IA_DISTRACTOR","0: NULL",1,3025,1,"cortó","S01_C1",5696,1.3503,"El agente corta los materiales",743,865,965,1072,1087,1154,2297,"corta",1,"ams",107
"15","ams07",21,127,0,0,0,0,10,1,"1: IA_TARGET","2: IA_DISTRACTOR","0: NULL",1,2252,1,"cortó","S01_C1",5696,1.3503,"El agente corta los materiales",743,865,965,1072,1087,1154,2297,"corta",3,"ams",107
"16","ams09",71,127,0,0,0,0,10,1,"1: IA_TARGET","2: IA_DISTRACTOR","0: NULL",1,2421,1,"cortó","S01_C1",5696,1.3503,"El agente corta los materiales",743,865,965,1072,1087,1154,2297,"corta",1,"ams",107
"17","ams11",7,127,0,0,10,1,0,0,"1: IA_TARGET","2: IA_DISTRACTOR","0: NULL",1,2507,1,"cortó","S01_C1",5696,1.3503,"El agente corta los materiales",743,865,965,1072,1087,1154,2297,"corta",3,"ams",107
"18","ams13",74,127,0,0,0,0,10,1,"1: IA_TARGET","2: IA_DISTRACTOR","0: NULL",1,2546,1,"cortó","S01_C1",5696,1.3503,"El agente corta los materiales",743,865,965,1072,1087,1154,2297,"corta",1,"ams",107
"19","ams15",15,127,0,0,0,0,10,1,"1: IA_TARGET","2: IA_DISTRACTOR","0: NULL",1,2623,1,"cortó","S01_C1",5696,1.3503,"El agente corta los materiales",743,865,965,1072,1087,1154,2297,"corta",3,"ams",107
"20","ams17",25,127,0,0,10,1,0,0,"1: IA_TARGET","2: IA_DISTRACTOR","0: NULL",1,2398,1,"cortó","S01_C1",5696,1.3503,"El agente corta los materiales",743,865,965,1072,1087,1154,2297,"corta",1,"ams",107
"21","ams19",34,127,0,0,10,1,0,0,"1: IA_TARGET","2: IA_DISTRACTOR","0: NULL",1,2363,1,"cortó","S01_C1",5696,1.3503,"El agente corta los materiales",743,865,965,1072,1087,1154,2297,"corta",3,"ams",107
"22","ies01",58,127,0,0,10,1,0,0,"1: IA_TARGET","2: IA_DISTRACTOR","0: NULL",1,2188,1,"cortó","S01_C1",5696,1.3503,"El agente corta los materiales",743,865,965,1072,1087,1154,2297,"corta",1,"ies",107
"23","ies03",37,127,0,0,0,0,10,1,"1: IA_TARGET","2: IA_DISTRACTOR","0: NULL",1,2062,1,"cortó","S01_C1",5696,1.3503,"El agente corta los materiales",743,865,965,1072,1087,1154,2297,"corta",3,"ies",107
"24","ies05",6,127,0,0,0,0,10,1,"1: IA_TARGET","2: IA_DISTRACTOR","0: NULL",1,2341,1,"cortó","S01_C1",5696,1.3503,"El agente corta los materiales",743,865,965,1072,1087,1154,2297,"corta",1,"ies",107
"25","ies07",40,127,0,0,0,0,10,1,"1: IA_TARGET","2: IA_DISTRACTOR","0: NULL",1,2485,1,"cortó","S01_C1",5696,1.3503,"El agente corta los materiales",743,865,965,1072,1087,1154,2297,"corta",3,"ies",107
"26","ies09",51,127,0,0,0,0,10,1,"1: IA_TARGET","2: IA_DISTRACTOR","0: NULL",1,2264,1,"cortó","S01_C1",5696,1.3503,"El agente corta los materiales",743,865,965,1072,1087,1154,2297,"corta",1,"ies",107
"27","ies11",74,127,0,0,10,1,0,0,"1: IA_TARGET","2: IA_DISTRACTOR","0: NULL",1,2322,1,"cortó","S01_C1",5696,1.3503,"El agente corta los materiales",743,865,965,1072,1087,1154,2297,"corta",3,"ies",107
"28","ims01",80,127,0,0,10,1,0,0,"1: IA_TARGET","2: IA_DISTRACTOR","0: NULL",1,2320,1,"cortó","S01_C1",5696,1.3503,"El agente corta los materiales",743,865,965,1072,1087,1154,2297,"corta",3,"ims",107
"29","ims03",42,127,0,0,0,0,10,1,"1: IA_TARGET","2: IA_DISTRACTOR","0: NULL",1,2018,1,"cortó","S01_C1",5696,1.3503,"El agente corta los materiales",743,865,965,1072,1087,1154,2297,"corta",3,"ims",107
"30","ims05",38,127,0,0,10,1,0,0,"1: IA_TARGET","2: IA_DISTRACTOR","0: NULL",1,2635,1,"cortó","S01_C1",5696,1.3503,"El agente corta los materiales",743,865,965,1072,1087,1154,2297,"corta",3,"ims",107
"31","ims07",39,127,0,0,10,1,0,0,"1: IA_TARGET","2: IA_DISTRACTOR","0: NULL",1,2468,1,"cortó","S01_C1",5696,1.3503,"El agente corta los materiales",743,865,965,1072,1087,1154,2297,"corta",1,"ims",107
"32","ims09",96,127,0,0,0,0,10,1,"1: IA_TARGET","2: IA_DISTRACTOR","0: NULL",1,2135,1,"cortó","S01_C1",5696,1.3503,"El agente corta los materiales",743,865,965,1072,1087,1154,2297,"corta",3,"ims",107
"33","ims11",68,127,0,0,10,1,0,0,"1: IA_TARGET","2: IA_DISTRACTOR","0: NULL",1,2127,1,"cortó","S01_C1",5696,1.3503,"El agente corta los materiales",743,865,965,1072,1087,1154,2297,"corta",1,"ims",107
"34","ims13",51,127,0,0,0,0,10,1,"1: IA_TARGET","2: IA_DISTRACTOR","0: NULL",1,2736,1,"cortó","S01_C1",5696,1.3503,"El agente corta los materiales",743,865,965,1072,1087,1154,2297,"corta",3,"ims",107
"35","mon01",70,127,0,0,10,1,0,0,"1: IA_TARGET","2: IA_DISTRACTOR","0: NULL",1,2492,1,"cortó","S01_C1",5696,1.3503,"El agente corta los materiales",743,865,965,1072,1087,1154,2297,"corta",1,"mon",107
"36","mon03",20,127,0,0,0,0,10,1,"1: IA_TARGET","2: IA_DISTRACTOR","0: NULL",1,2370,1,"cortó","S01_C1",5696,1.3503,"El agente corta los materiales",743,865,965,1072,1087,1154,2297,"corta",3,"mon",107
"37","mon05",65,127,0,0,10,1,0,0,"1: IA_TARGET","2: IA_DISTRACTOR","0: NULL",1,2173,1,"cortó","S01_C1",5696,1.3503,"El agente corta los materiales",743,865,965,1072,1087,1154,2297,"corta",1,"mon",107
"38","mon07",29,127,0,0,10,1,0,0,"1: IA_TARGET","2: IA_DISTRACTOR","0: NULL",1,2284,1,"cortó","S01_C1",5696,1.3503,"El agente corta los materiales",743,865,965,1072,1087,1154,2297,"corta",3,"mon",107
"39","mon09",51,127,0,0,10,1,0,0,"1: IA_TARGET","2: IA_DISTRACTOR","0: NULL",1,2171,1,"cortó","S01_C1",5696,1.3503,"El agente corta los materiales",743,865,965,1072,1087,1154,2297,"corta",1,"mon",107
"40","mon11",90,127,0,0,10,1,0,0,"1: IA_TARGET","2: IA_DISTRACTOR","0: NULL",1,2257,1,"cortó","S01_C1",5696,1.3503,"El agente corta los materiales",743,865,965,1072,1087,1154,2297,"corta",3,"mon",107
"41","mon13",12,127,10,1,0,0,0,0,"1: IA_TARGET","2: IA_DISTRACTOR","0: NULL",1,2195,1,"cortó","S01_C1",5696,1.3503,"El agente corta los materiales",743,865,965,1072,1087,1154,2297,"corta",1,"mon",107
"42","mon15",64,127,0,0,0,0,10,1,"1: IA_TARGET","2: IA_DISTRACTOR","0: NULL",1,2392,1,"cortó","S01_C1",5696,1.3503,"El agente corta los materiales",743,865,965,1072,1087,1154,2297,"corta",3,"mon",107
"43","mon17",78,127,0,0,0,0,10,1,"1: IA_TARGET","2: IA_DISTRACTOR","0: NULL",1,2210,1,"cortó","S01_C1",5696,1.3503,"El agente corta los materiales",743,865,965,1072,1087,1154,2297,"corta",1,"mon",107
"44","mon19",100,127,0,0,10,1,0,0,"1: IA_TARGET","2: IA_DISTRACTOR","0: NULL",1,2614,1,"cortó","S01_C1",5696,1.3503,"El agente corta los materiales",743,865,965,1072,1087,1154,2297,"corta",3,"mon",107
"45","mon21",63,127,0,0,0,0,10,1,"1: IA_TARGET","2: IA_DISTRACTOR","0: NULL",1,2089,1,"cortó","S01_C1",5696,1.3503,"El agente corta los materiales",743,865,965,1072,1087,1154,2297,"corta",1,"mon",107
"46","mon23",52,127,0,0,10,1,0,0,"1: IA_TARGET","2: IA_DISTRACTOR","0: NULL",1,2095,1,"cortó","S01_C1",5696,1.3503,"El agente corta los materiales",743,865,965,1072,1087,1154,2297,"corta",3,"mon",107
"47","mon25",61,127,0,0,10,1,0,0,"1: IA_TARGET","2: IA_DISTRACTOR","0: NULL",1,2023,1,"cortó","S01_C1",5696,1.3503,"El agente corta los materiales",743,865,965,1072,1087,1154,2297,"corta",1,"mon",107
"48","mon27",6,127,0,0,10,1,0,0,"1: IA_TARGET","2: IA_DISTRACTOR","0: NULL",1,2404,1,"cortó","S01_C1",5696,1.3503,"El agente corta los materiales",743,865,965,1072,1087,1154,2297,"corta",3,"mon",107
"49","mon29",48,127,0,0,0,0,10,1,"1: IA_TARGET","2: IA_DISTRACTOR","0: NULL",1,2010,1,"cortó","S01_C1",5696,1.3503,"El agente corta los materiales",743,865,965,1072,1087,1154,2297,"corta",1,"mon",107
"50","aes02",98,129,0,0,0,0,0,0,"1: IA_TARGET","2: IA_DISTRACTOR","0: NULL",1,2849,2,"cortó","S01_C2",1427,1.2971,"El agente cortó los materiales",750,852,934,1093,1102,1214,2367,"corta",4,"aes",109
"51","aes04",47,129,0,0,10,1,0,0,"1: IA_TARGET","2: IA_DISTRACTOR","0: NULL",1,2306,2,"corta","S01_C2",1427,1.2971,"El agente cortó los materiales",750,852,934,1093,1102,1214,2367,"cortó",2,"aes",109
"52","aes06",64,129,0,0,10,1,0,0,"1: IA_TARGET","2: IA_DISTRACTOR","0: NULL",1,2469,2,"cortó","S01_C2",1427,1.2971,"El agente cortó los materiales",750,852,934,1093,1102,1214,2367,"corta",4,"aes",109
"53","aes08",53,129,0,0,10,1,0,0,"1: IA_TARGET","2: IA_DISTRACTOR","0: NULL",1,2064,2,"corta","S01_C2",1427,1.2971,"El agente cortó los materiales",750,852,934,1093,1102,1214,2367,"cortó",2,"aes",109
"54","aes10",10,129,0,0,0,0,10,1,"1: IA_TARGET","2: IA_DISTRACTOR","0: NULL",1,2719,2,"cortó","S01_C2",1427,1.2971,"El agente cortó los materiales",750,852,934,1093,1102,1214,2367,"corta",4,"aes",109
"55","aes12",72,129,0,0,10,1,0,0,"1: IA_TARGET","2: IA_DISTRACTOR","0: NULL",1,2071,2,"corta","S01_C2",1427,1.2971,"El agente cortó los materiales",750,852,934,1093,1102,1214,2367,"cortó",2,"aes",109
"56","aes14",26,129,0,0,10,1,0,0,"1: IA_TARGET","2: IA_DISTRACTOR","0: NULL",1,2337,2,"cortó","S01_C2",1427,1.2971,"El agente cortó los materiales",750,852,934,1093,1102,1214,2367,"corta",4,"aes",109
"57","aes16",62,129,0,0,10,1,0,0,"1: IA_TARGET","2: IA_DISTRACTOR","0: NULL",1,2543,2,"corta","S01_C2",1427,1.2971,"El agente cortó los materiales",750,852,934,1093,1102,1214,2367,"cortó",2,"aes",109
"58","aes18",18,129,5,0.5,0,0,5,0.5,"1: IA_TARGET","2: IA_DISTRACTOR","0: NULL",1,2537,2,"cortó","S01_C2",1427,1.2971,"El agente cortó los materiales",750,852,934,1093,1102,1214,2367,"corta",4,"aes",109
"59","aes20",86,129,0,0,0,0,10,1,"1: IA_TARGET","2: IA_DISTRACTOR","0: NULL",1,2348,2,"corta","S01_C2",1427,1.2971,"El agente cortó los materiales",750,852,934,1093,1102,1214,2367,"cortó",2,"aes",109
"60","ams02",26,129,0,0,0,0,0,0,"1: IA_TARGET","2: IA_DISTRACTOR","0: NULL",1,2011,2,"corta","S01_C2",1427,1.2971,"El agente cortó los materiales",750,852,934,1093,1102,1214,2367,"cortó",2,"ams",109
"61","ams04",64,129,0,0,10,1,0,0,"1: IA_TARGET","2: IA_DISTRACTOR","0: NULL",1,2134,2,"cortó","S01_C2",1427,1.2971,"El agente cortó los materiales",750,852,934,1093,1102,1214,2367,"corta",4,"ams",109
"62","ams06",47,129,0,0,10,1,0,0,"1: IA_TARGET","2: IA_DISTRACTOR","0: NULL",1,3097,2,"corta","S01_C2",1427,1.2971,"El agente cortó los materiales",750,852,934,1093,1102,1214,2367,"cortó",2,"ams",109
"63","ams08",60,129,5,1,0,0,0,0,"1: IA_TARGET","2: IA_DISTRACTOR","0: NULL",1,2004,2,"cortó","S01_C2",1427,1.2971,"El agente cortó los materiales",750,852,934,1093,1102,1214,2367,"corta",4,"ams",109
"64","ams10",14,129,0,0,10,1,0,0,"1: IA_TARGET","2: IA_DISTRACTOR","0: NULL",1,2638,2,"corta","S01_C2",1427,1.2971,"El agente cortó los materiales",750,852,934,1093,1102,1214,2367,"cortó",2,"ams",109
"65","ams12",36,129,4,0.4,0,0,6,0.6,"1: IA_TARGET","2: IA_DISTRACTOR","0: NULL",1,2578,2,"cortó","S01_C2",1427,1.2971,"El agente cortó los materiales",750,852,934,1093,1102,1214,2367,"corta",4,"ams",109
"66","ams14",29,129,0,0,10,1,0,0,"1: IA_TARGET","2: IA_DISTRACTOR","0: NULL",1,2086,2,"corta","S01_C2",1427,1.2971,"El agente cortó los materiales",750,852,934,1093,1102,1214,2367,"cortó",2,"ams",109
"67","ams16",63,129,0,0,0,0,10,1,"1: IA_TARGET","2: IA_DISTRACTOR","0: NULL",1,2368,2,"cortó","S01_C2",1427,1.2971,"El agente cortó los materiales",750,852,934,1093,1102,1214,2367,"corta",4,"ams",109
"68","ams18",55,129,0,0,10,1,0,0,"1: IA_TARGET","2: IA_DISTRACTOR","0: NULL",1,2249,2,"corta","S01_C2",1427,1.2971,"El agente cortó los materiales",750,852,934,1093,1102,1214,2367,"cortó",2,"ams",109
"69","ies02",67,129,0,0,10,1,0,0,"1: IA_TARGET","2: IA_DISTRACTOR","0: NULL",1,2158,2,"corta","S01_C2",1427,1.2971,"El agente cortó los materiales",750,852,934,1093,1102,1214,2367,"cortó",2,"ies",109
"70","ies04",17,129,0,0,0,0,10,1,"1: IA_TARGET","2: IA_DISTRACTOR","0: NULL",1,2556,2,"cortó","S01_C2",1427,1.2971,"El agente cortó los materiales",750,852,934,1093,1102,1214,2367,"corta",4,"ies",109
"71","ies06",67,129,0,0,10,1,0,0,"1: IA_TARGET","2: IA_DISTRACTOR","0: NULL",1,2715,2,"corta","S01_C2",1427,1.2971,"El agente cortó los materiales",750,852,934,1093,1102,1214,2367,"cortó",2,"ies",109
"72","ies08",80,129,0,0,10,1,0,0,"1: IA_TARGET","2: IA_DISTRACTOR","0: NULL",1,2423,2,"cortó","S01_C2",1427,1.2971,"El agente cortó los materiales",750,852,934,1093,1102,1214,2367,"corta",4,"ies",109
"73","ies10",60,129,0,0,10,1,0,0,"1: IA_TARGET","2: IA_DISTRACTOR","0: NULL",1,2461,2,"corta","S01_C2",1427,1.2971,"El agente cortó los materiales",750,852,934,1093,1102,1214,2367,"cortó",2,"ies",109
"74","ies12",5,129,0,0,10,1,0,0,"1: IA_TARGET","2: IA_DISTRACTOR","0: NULL",1,3056,2,"cortó","S01_C2",1427,1.2971,"El agente cortó los materiales",750,852,934,1093,1102,1214,2367,"corta",4,"ies",109
"75","ies14",95,129,0,0,10,1,0,0,"1: IA_TARGET","2: IA_DISTRACTOR","0: NULL",1,2096,2,"corta","S01_C2",1427,1.2971,"El agente cortó los materiales",750,852,934,1093,1102,1214,2367,"cortó",2,"ies",109
"76","ims02",76,129,0,0,0,0,10,1,"1: IA_TARGET","2: IA_DISTRACTOR","0: NULL",1,2316,2,"cortó","S01_C2",1427,1.2971,"El agente cortó los materiales",750,852,934,1093,1102,1214,2367,"corta",4,"ims",109
"77","ims04",82,129,0,0,10,1,0,0,"1: IA_TARGET","2: IA_DISTRACTOR","0: NULL",1,2589,2,"corta","S01_C2",1427,1.2971,"El agente cortó los materiales",750,852,934,1093,1102,1214,2367,"cortó",2,"ims",109
"78","ims06",99,129,0,0,0,0,10,1,"1: IA_TARGET","2: IA_DISTRACTOR","0: NULL",1,2282,2,"cortó","S01_C2",1427,1.2971,"El agente cortó los materiales",750,852,934,1093,1102,1214,2367,"corta",4,"ims",109
"79","ims08",82,129,0,0,10,1,0,0,"1: IA_TARGET","2: IA_DISTRACTOR","0: NULL",1,2853,2,"corta","S01_C2",1427,1.2971,"El agente cortó los materiales",750,852,934,1093,1102,1214,2367,"cortó",2,"ims",109
"80","ims10",88,129,0,0,0,0,10,1,"1: IA_TARGET","2: IA_DISTRACTOR","0: NULL",1,2038,2,"cortó","S01_C2",1427,1.2971,"El agente cortó los materiales",750,852,934,1093,1102,1214,2367,"corta",4,"ims",109
"81","ims12",36,129,0,0,0,0,10,1,"1: IA_TARGET","2: IA_DISTRACTOR","0: NULL",1,2048,2,"corta","S01_C2",1427,1.2971,"El agente cortó los materiales",750,852,934,1093,1102,1214,2367,"cortó",2,"ims",109
"82","ims14",25,129,0,0,10,1,0,0,"1: IA_TARGET","2: IA_DISTRACTOR","0: NULL",1,2140,2,"cortó","S01_C2",1427,1.2971,"El agente cortó los materiales",750,852,934,1093,1102,1214,2367,"corta",4,"ims",109
"83","mon02",7,129,0,0,0,0,10,1,"1: IA_TARGET","2: IA_DISTRACTOR","0: NULL",1,2108,2,"corta","S01_C2",1427,1.2971,"El agente cortó los materiales",750,852,934,1093,1102,1214,2367,"cortó",2,"mon",109
"84","mon04",66,129,0,0,10,1,0,0,"1: IA_TARGET","2: IA_DISTRACTOR","0: NULL",1,2707,2,"cortó","S01_C2",1427,1.2971,"El agente cortó los materiales",750,852,934,1093,1102,1214,2367,"corta",4,"mon",109
"85","mon06",44,129,0,0,10,1,0,0,"1: IA_TARGET","2: IA_DISTRACTOR","0: NULL",1,2729,2,"corta","S01_C2",1427,1.2971,"El agente cortó los materiales",750,852,934,1093,1102,1214,2367,"cortó",2,"mon",109
"86","mon08",37,129,0,0,0,0,10,1,"1: IA_TARGET","2: IA_DISTRACTOR","0: NULL",1,2247,2,"cortó","S01_C2",1427,1.2971,"El agente cortó los materiales",750,852,934,1093,1102,1214,2367,"corta",4,"mon",109
"87","mon10",97,129,0,0,10,1,0,0,"1: IA_TARGET","2: IA_DISTRACTOR","0: NULL",1,2123,2,"corta","S01_C2",1427,1.2971,"El agente cortó los materiales",750,852,934,1093,1102,1214,2367,"cortó",2,"mon",109
"88","mon12",70,129,0,0,10,1,0,0,"1: IA_TARGET","2: IA_DISTRACTOR","0: NULL",1,2293,2,"cortó","S01_C2",1427,1.2971,"El agente cortó los materiales",750,852,934,1093,1102,1214,2367,"corta",4,"mon",109
"89","mon14",57,129,0,0,0,0,10,1,"1: IA_TARGET","2: IA_DISTRACTOR","0: NULL",1,2073,2,"corta","S01_C2",1427,1.2971,"El agente cortó los materiales",750,852,934,1093,1102,1214,2367,"cortó",2,"mon",109
"90","mon16",24,129,0,0,10,1,0,0,"1: IA_TARGET","2: IA_DISTRACTOR","0: NULL",1,2443,2,"cortó","S01_C2",1427,1.2971,"El agente cortó los materiales",750,852,934,1093,1102,1214,2367,"corta",4,"mon",109
"91","mon18",19,129,0,0,10,1,0,0,"1: IA_TARGET","2: IA_DISTRACTOR","0: NULL",1,2547,2,"corta","S01_C2",1427,1.2971,"El agente cortó los materiales",750,852,934,1093,1102,1214,2367,"cortó",2,"mon",109
"92","mon20",77,129,0,0,10,1,0,0,"1: IA_TARGET","2: IA_DISTRACTOR","0: NULL",1,2027,2,"cortó","S01_C2",1427,1.2971,"El agente cortó los materiales",750,852,934,1093,1102,1214,2367,"corta",4,"mon",109
"93","mon22",52,129,0,0,10,1,0,0,"1: IA_TARGET","2: IA_DISTRACTOR","0: NULL",1,2176,2,"corta","S01_C2",1427,1.2971,"El agente cortó los materiales",750,852,934,1093,1102,1214,2367,"cortó",2,"mon",109
"94","mon24",62,129,0,0,10,1,0,0,"1: IA_TARGET","2: IA_DISTRACTOR","0: NULL",1,2866,2,"cortó","S01_C2",1427,1.2971,"El agente cortó los materiales",750,852,934,1093,1102,1214,2367,"corta",4,"mon",109
"95","mon26",64,129,0,0,10,1,0,0,"1: IA_TARGET","2: IA_DISTRACTOR","0: NULL",1,2350,2,"corta","S01_C2",1427,1.2971,"El agente cortó los materiales",750,852,934,1093,1102,1214,2367,"cortó",2,"mon",109
"96","mon28",71,129,0,0,0,0,10,1,"1: IA_TARGET","2: IA_DISTRACTOR","0: NULL",1,2078,2,"cortó","S01_C2",1427,1.2971,"El agente cortó los materiales",750,852,934,1093,1102,1214,2367,"corta",4,"mon",109
"97","mon30",6,129,0,0,10,1,0,0,"1: IA_TARGET","2: IA_DISTRACTOR","0: NULL",1,2586,2,"corta","S01_C2",1427,1.2971,"El agente cortó los materiales",750,852,934,1093,1102,1214,2367,"cortó",2,"mon",109
"98","aes02",89,120,0,0,0,0,10,1,"1: IA_TARGET","2: IA_DISTRACTOR","0: NULL",1,2117,1,"pintó","S02_C1",1624,1.4582,"El alum2 pinta su cuader2",693,792,893,1002,1021,1073,1879,"pinta",4,"aes",100
"99","aes04",44,120,0,0,0,0,10,1,"1: IA_TARGET","2: IA_DISTRACTOR","0: NULL",1,2776,1,"pinto","S02_C1",1624,1.4582,"El alum2 pinta su cuader2",693,792,893,1002,1021,1073,1879,"pinta",2,"aes",100
"100","aes06",56,120,0,0,0,0,10,1,"1: IA_TARGET","2: IA_DISTRACTOR","0: NULL",1,2264,1,"pintó","S02_C1",1624,1.4582,"El alum2 pinta su cuader2",693,792,893,1002,1021,1073,1879,"pinta",4,"aes",100
"101","aes08",59,120,0,0,0,0,10,1,"1: IA_TARGET","2: IA_DISTRACTOR","0: NULL",1,2101,1,"pinto","S02_C1",1624,1.4582,"El alum2 pinta su cuader2",693,792,893,1002,1021,1073,1879,"pinta",2,"aes",100
"102","aes10",14,120,0,0,0,0,10,1,"1: IA_TARGET","2: IA_DISTRACTOR","0: NULL",1,2439,1,"pintó","S02_C1",1624,1.4582,"El alum2 pinta su cuader2",693,792,893,1002,1021,1073,1879,"pinta",4,"aes",100
"103","aes12",71,120,0,0,10,1,0,0,"1: IA_TARGET","2: IA_DISTRACTOR","0: NULL",1,2616,1,"pinto","S02_C1",1624,1.4582,"El alum2 pinta su cuader2",693,792,893,1002,1021,1073,1879,"pinta",2,"aes",100
"104","aes14",22,120,0,0,0,0,10,1,"1: IA_TARGET","2: IA_DISTRACTOR","0: NULL",1,2179,1,"pintó","S02_C1",1624,1.4582,"El alum2 pinta su cuader2",693,792,893,1002,1021,1073,1879,"pinta",4,"aes",100
"105","aes16",60,120,0,0,0,0,10,1,"1: IA_TARGET","2: IA_DISTRACTOR","0: NULL",1,2357,1,"pinto","S02_C1",1624,1.4582,"El alum2 pinta su cuader2",693,792,893,1002,1021,1073,1879,"pinta",2,"aes",100
"106","aes18",21,120,0,0,0,0,10,1,"1: IA_TARGET","2: IA_DISTRACTOR","0: NULL",1,2399,1,"pintó","S02_C1",1624,1.4582,"El alum2 pinta su cuader2",693,792,893,1002,1021,1073,1879,"pinta",4,"aes",100
"107","aes20",81,120,0,0,0,0,10,1,"1: IA_TARGET","2: IA_DISTRACTOR","0: NULL",1,2027,1,"pinto","S02_C1",1624,1.4582,"El alum2 pinta su cuader2",693,792,893,1002,1021,1073,1879,"pinta",2,"aes",100
"108","ams02",27,120,0,0,0,0,10,1,"1: IA_TARGET","2: IA_DISTRACTOR","0: NULL",1,2119,1,"pinto","S02_C1",1624,1.4582,"El alum2 pinta su cuader2",693,792,893,1002,1021,1073,1879,"pinta",2,"ams",100
"109","ams04",57,120,0,0,10,1,0,0,"1: IA_TARGET","2: IA_DISTRACTOR","0: NULL",1,2474,1,"pintó","S02_C1",1624,1.4582,"El alum2 pinta su cuader2",693,792,893,1002,1021,1073,1879,"pinta",4,"ams",100
"110","ams06",52,120,0,0,10,1,0,0,"1: IA_TARGET","2: IA_DISTRACTOR","0: NULL",1,2792,1,"pinto","S02_C1",1624,1.4582,"El alum2 pinta su cuader2",693,792,893,1002,1021,1073,1879,"pinta",2,"ams",100
"111","ams08",63,120,0,0,10,1,0,0,"1: IA_TARGET","2: IA_DISTRACTOR","0: NULL",1,2016,1,"pintó","S02_C1",1624,1.4582,"El alum2 pinta su cuader2",693,792,893,1002,1021,1073,1879,"pinta",4,"ams",100
"112","ams10",11,120,5,0.5,0,0,5,0.5,"1: IA_TARGET","2: IA_DISTRACTOR","0: NULL",1,2315,1,"pinto","S02_C1",1624,1.4582,"El alum2 pinta su cuader2",693,792,893,1002,1021,1073,1879,"pinta",2,"ams",100
"113","ams12",40,120,0,0,0,0,10,1,"1: IA_TARGET","2: IA_DISTRACTOR","0: NULL",1,2004,1,"pintó","S02_C1",1624,1.4582,"El alum2 pinta su cuader2",693,792,893,1002,1021,1073,1879,"pinta",4,"ams",100
"114","ams14",32,120,0,0,0,0,0,0,"1: IA_TARGET","2: IA_DISTRACTOR","0: NULL",1,2517,1,"pinto","S02_C1",1624,1.4582,"El alum2 pinta su cuader2",693,792,893,1002,1021,1073,1879,"pinta",2,"ams",100
"115","ams16",58,120,0,0,10,1,0,0,"1: IA_TARGET","2: IA_DISTRACTOR","0: NULL",1,2379,1,"pintó","S02_C1",1624,1.4582,"El alum2 pinta su cuader2",693,792,893,1002,1021,1073,1879,"pinta",4,"ams",100
"116","ams18",54,120,0,0,0,0,10,1,"1: IA_TARGET","2: IA_DISTRACTOR","0: NULL",1,2191,1,"pinto","S02_C1",1624,1.4582,"El alum2 pinta su cuader2",693,792,893,1002,1021,1073,1879,"pinta",2,"ams",100
"117","ies02",68,120,0,0,10,1,0,0,"1: IA_TARGET","2: IA_DISTRACTOR","0: NULL",1,2197,1,"pinto","S02_C1",1624,1.4582,"El alum2 pinta su cuader2",693,792,893,1002,1021,1073,1879,"pinta",2,"ies",100
"118","ies04",22,120,0,0,10,1,0,0,"1: IA_TARGET","2: IA_DISTRACTOR","0: NULL",1,4510,1,"pintó","S02_C1",1624,1.4582,"El alum2 pinta su cuader2",693,792,893,1002,1021,1073,1879,"pinta",4,"ies",100
"119","ies06",68,120,0,0,10,1,0,0,"1: IA_TARGET","2: IA_DISTRACTOR","0: NULL",1,2169,1,"pinto","S02_C1",1624,1.4582,"El alum2 pinta su cuader2",693,792,893,1002,1021,1073,1879,"pinta",2,"ies",100
"120","ies08",86,120,0,0,0,0,10,1,"1: IA_TARGET","2: IA_DISTRACTOR","0: NULL",1,2447,1,"pintó","S02_C1",1624,1.4582,"El alum2 pinta su cuader2",693,792,893,1002,1021,1073,1879,"pinta",4,"ies",100
"121","ies10",56,120,0,0,10,1,0,0,"1: IA_TARGET","2: IA_DISTRACTOR","0: NULL",1,2040,1,"pinto","S02_C1",1624,1.4582,"El alum2 pinta su cuader2",693,792,893,1002,1021,1073,1879,"pinta",2,"ies",100
"122","ies12",6,120,0,0,10,1,0,0,"1: IA_TARGET","2: IA_DISTRACTOR","0: NULL",1,2431,1,"pintó","S02_C1",1624,1.4582,"El alum2 pinta su cuader2",693,792,893,1002,1021,1073,1879,"pinta",4,"ies",100
"123","ies14",96,120,0,0,10,1,0,0,"1: IA_TARGET","2: IA_DISTRACTOR","0: NULL",1,2217,1,"pinto","S02_C1",1624,1.4582,"El alum2 pinta su cuader2",693,792,893,1002,1021,1073,1879,"pinta",2,"ies",100
"124","ims02",74,120,0,0,0,0,0,0,"1: IA_TARGET","2: IA_DISTRACTOR","0: NULL",1,2449,1,"pintó","S02_C1",1624,1.4582,"El alum2 pinta su cuader2",693,792,893,1002,1021,1073,1879,"pinta",4,"ims",100
"125","ims04",79,120,0,0,10,1,0,0,"1: IA_TARGET","2: IA_DISTRACTOR","0: NULL",1,2127,1,"pinto","S02_C1",1624,1.4582,"El alum2 pinta su cuader2",693,792,893,1002,1021,1073,1879,"pinta",2,"ims",100
"126","ims06",91,120,0,0,0,0,10,1,"1: IA_TARGET","2: IA_DISTRACTOR","0: NULL",1,2240,1,"pintó","S02_C1",1624,1.4582,"El alum2 pinta su cuader2",693,792,893,1002,1021,1073,1879,"pinta",4,"ims",100
"127","ims10",81,120,0,0,0,0,0,0,"1: IA_TARGET","2: IA_DISTRACTOR","0: NULL",1,2144,1,"pintó","S02_C1",1624,1.4582,"El alum2 pinta su cuader2",693,792,893,1002,1021,1073,1879,"pinta",4,"ims",100
"128","ims12",37,120,0,0,10,1,0,0,"1: IA_TARGET","2: IA_DISTRACTOR","0: NULL",1,2422,1,"pinto","S02_C1",1624,1.4582,"El alum2 pinta su cuader2",693,792,893,1002,1021,1073,1879,"pinta",2,"ims",100
"129","ims14",17,120,0,0,0,0,10,1,"1: IA_TARGET","2: IA_DISTRACTOR","0: NULL",1,2625,1,"pintó","S02_C1",1624,1.4582,"El alum2 pinta su cuader2",693,792,893,1002,1021,1073,1879,"pinta",4,"ims",100
"130","mon02",9,120,0,0,10,1,0,0,"1: IA_TARGET","2: IA_DISTRACTOR","0: NULL",1,2299,1,"pinto","S02_C1",1624,1.4582,"El alum2 pinta su cuader2",693,792,893,1002,1021,1073,1879,"pinta",2,"mon",100
"131","mon04",72,120,0,0,10,1,0,0,"1: IA_TARGET","2: IA_DISTRACTOR","0: NULL",1,2342,1,"pintó","S02_C1",1624,1.4582,"El alum2 pinta su cuader2",693,792,893,1002,1021,1073,1879,"pinta",4,"mon",100
"132","mon06",50,120,0,0,10,1,0,0,"1: IA_TARGET","2: IA_DISTRACTOR","0: NULL",1,2438,1,"pinto","S02_C1",1624,1.4582,"El alum2 pinta su cuader2",693,792,893,1002,1021,1073,1879,"pinta",2,"mon",100
"133","mon08",30,120,0,0,0,0,10,1,"1: IA_TARGET","2: IA_DISTRACTOR","0: NULL",1,2335,1,"pintó","S02_C1",1624,1.4582,"El alum2 pinta su cuader2",693,792,893,1002,1021,1073,1879,"pinta",4,"mon",100
"134","mon10",92,120,0,0,10,1,0,0,"1: IA_TARGET","2: IA_DISTRACTOR","0: NULL",1,2821,1,"pinto","S02_C1",1624,1.4582,"El alum2 pinta su cuader2",693,792,893,1002,1021,1073,1879,"pinta",2,"mon",100
"135","mon12",68,120,0,0,10,1,0,0,"1: IA_TARGET","2: IA_DISTRACTOR","0: NULL",1,2497,1,"pintó","S02_C1",1624,1.4582,"El alum2 pinta su cuader2",693,792,893,1002,1021,1073,1879,"pinta",4,"mon",100
"136","mon14",54,120,0,0,0,0,10,1,"1: IA_TARGET","2: IA_DISTRACTOR","0: NULL",1,2329,1,"pinto","S02_C1",1624,1.4582,"El alum2 pinta su cuader2",693,792,893,1002,1021,1073,1879,"pinta",2,"mon",100
"137","mon16",25,120,0,0,10,1,0,0,"1: IA_TARGET","2: IA_DISTRACTOR","0: NULL",1,2506,1,"pintó","S02_C1",1624,1.4582,"El alum2 pinta su cuader2",693,792,893,1002,1021,1073,1879,"pinta",4,"mon",100
"138","mon18",22,120,8,0.8,0,0,2,0.2,"1: IA_TARGET","2: IA_DISTRACTOR","0: NULL",1,2232,1,"pinto","S02_C1",1624,1.4582,"El alum2 pinta su cuader2",693,792,893,1002,1021,1073,1879,"pinta",2,"mon",100
"139","mon20",83,120,0,0,10,1,0,0,"1: IA_TARGET","2: IA_DISTRACTOR","0: NULL",1,2456,1,"pintó","S02_C1",1624,1.4582,"El alum2 pinta su cuader2",693,792,893,1002,1021,1073,1879,"pinta",4,"mon",100
"140","mon22",45,120,0,0,10,1,0,0,"1: IA_TARGET","2: IA_DISTRACTOR","0: NULL",1,2902,1,"pinto","S02_C1",1624,1.4582,"El alum2 pinta su cuader2",693,792,893,1002,1021,1073,1879,"pinta",2,"mon",100
"141","mon24",58,120,0,0,0,0,10,1,"1: IA_TARGET","2: IA_DISTRACTOR","0: NULL",1,2624,1,"pintó","S02_C1",1624,1.4582,"El alum2 pinta su cuader2",693,792,893,1002,1021,1073,1879,"pinta",4,"mon",100
"142","mon26",63,120,0,0,10,1,0,0,"1: IA_TARGET","2: IA_DISTRACTOR","0: NULL",1,2496,1,"pinto","S02_C1",1624,1.4582,"El alum2 pinta su cuader2",693,792,893,1002,1021,1073,1879,"pinta",2,"mon",100
"143","mon28",72,120,0,0,10,1,0,0,"1: IA_TARGET","2: IA_DISTRACTOR","0: NULL",1,2213,1,"pintó","S02_C1",1624,1.4582,"El alum2 pinta su cuader2",693,792,893,1002,1021,1073,1879,"pinta",4,"mon",100
"144","mon30",13,120,0,0,10,1,0,0,"1: IA_TARGET","2: IA_DISTRACTOR","0: NULL",1,2329,1,"pinto","S02_C1",1624,1.4582,"El alum2 pinta su cuader2",693,792,893,1002,1021,1073,1879,"pinta",2,"mon",100
"145","aes01",99,119,0,0,0,0,10,1,"1: IA_TARGET","2: IA_DISTRACTOR","0: NULL",1,2481,2,"pinta","S02_C2",679,1.405,"El alum2 pintó su cuader2",695,787,866,991,1006,1094,1909,"pintó",3,"aes",99
"146","aes03",45,119,0,0,10,1,0,0,"1: IA_TARGET","2: IA_DISTRACTOR","0: NULL",1,2209,2,"pinta","S02_C2",679,1.405,"El alum2 pintó su cuader2",695,787,866,991,1006,1094,1909,"pintó",1,"aes",99
"147","aes05",48,119,7,0.7,3,0.3,0,0,"1: IA_TARGET","2: IA_DISTRACTOR","0: NULL",1,2097,2,"pinta","S02_C2",679,1.405,"El alum2 pintó su cuader2",695,787,866,991,1006,1094,1909,"pintó",3,"aes",99
"148","aes07",87,119,0,0,10,1,0,0,"1: IA_TARGET","2: IA_DISTRACTOR","0: NULL",1,2011,2,"pinta","S02_C2",679,1.405,"El alum2 pintó su cuader2",695,787,866,991,1006,1094,1909,"pintó",1,"aes",99
"149","aes09",26,119,0,0,10,1,0,0,"1: IA_TARGET","2: IA_DISTRACTOR","0: NULL",1,2461,2,"pinta","S02_C2",679,1.405,"El alum2 pintó su cuader2",695,787,866,991,1006,1094,1909,"pintó",3,"aes",99
"150","aes11",31,119,0,0,0,0,10,1,"1: IA_TARGET","2: IA_DISTRACTOR","0: NULL",1,2406,2,"pinta","S02_C2",679,1.405,"El alum2 pintó su cuader2",695,787,866,991,1006,1094,1909,"pintó",1,"aes",99
"151","aes13",98,119,0,0,0,0,10,1,"1: IA_TARGET","2: IA_DISTRACTOR","0: NULL",1,2551,2,"pinta","S02_C2",679,1.405,"El alum2 pintó su cuader2",695,787,866,991,1006,1094,1909,"pintó",3,"aes",99
"152","aes15",95,119,0,0,0,0,10,1,"1: IA_TARGET","2: IA_DISTRACTOR","0: NULL",1,2282,2,"pinta","S02_C2",679,1.405,"El alum2 pintó su cuader2",695,787,866,991,1006,1094,1909,"pintó",1,"aes",99
"153","aes17",25,119,0,0,10,1,0,0,"1: IA_TARGET","2: IA_DISTRACTOR","0: NULL",1,2314,2,"pinta","S02_C2",679,1.405,"El alum2 pintó su cuader2",695,787,866,991,1006,1094,1909,"pintó",3,"aes",99
"154","aes19",66,119,0,0,10,1,0,0,"1: IA_TARGET","2: IA_DISTRACTOR","0: NULL",1,2822,2,"pinta","S02_C2",679,1.405,"El alum2 pintó su cuader2",695,787,866,991,1006,1094,1909,"pintó",1,"aes",99
"155","aes21",71,119,0,0,10,1,0,0,"1: IA_TARGET","2: IA_DISTRACTOR","0: NULL",1,2109,2,"pinta","S02_C2",679,1.405,"El alum2 pintó su cuader2",695,787,866,991,1006,1094,1909,"pintó",3,"aes",99
"156","ams01",75,119,0,0,0,0,10,1,"1: IA_TARGET","2: IA_DISTRACTOR","0: NULL",1,2178,2,"pinta","S02_C2",679,1.405,"El alum2 pintó su cuader2",695,787,866,991,1006,1094,1909,"pintó",1,"ams",99
"157","ams03",68,119,0,0,0,0,10,1,"1: IA_TARGET","2: IA_DISTRACTOR","0: NULL",1,2051,2,"pinta","S02_C2",679,1.405,"El alum2 pintó su cuader2",695,787,866,991,1006,1094,1909,"pintó",3,"ams",99
"158","ams05",24,119,0,0,0,0,10,1,"1: IA_TARGET","2: IA_DISTRACTOR","0: NULL",1,2237,2,"pinta","S02_C2",679,1.405,"El alum2 pintó su cuader2",695,787,866,991,1006,1094,1909,"pintó",1,"ams",99
"159","ams07",19,119,0,0,10,1,0,0,"1: IA_TARGET","2: IA_DISTRACTOR","0: NULL",1,2041,2,"pinta","S02_C2",679,1.405,"El alum2 pintó su cuader2",695,787,866,991,1006,1094,1909,"pintó",3,"ams",99
"160","ams09",70,119,0,0,0,0,10,1,"1: IA_TARGET","2: IA_DISTRACTOR","0: NULL",1,2209,2,"pinta","S02_C2",679,1.405,"El alum2 pintó su cuader2",695,787,866,991,1006,1094,1909,"pintó",1,"ams",99
"161","ams11",9,119,0,0,10,1,0,0,"1: IA_TARGET","2: IA_DISTRACTOR","0: NULL",1,2253,2,"pinta","S02_C2",679,1.405,"El alum2 pintó su cuader2",695,787,866,991,1006,1094,1909,"pintó",3,"ams",99
"162","ams13",73,119,0,0,10,1,0,0,"1: IA_TARGET","2: IA_DISTRACTOR","0: NULL",1,2085,2,"pinta","S02_C2",679,1.405,"El alum2 pintó su cuader2",695,787,866,991,1006,1094,1909,"pintó",1,"ams",99
"163","ams15",12,119,0,0,0,0,0,0,"1: IA_TARGET","2: IA_DISTRACTOR","0: NULL",1,2587,2,"pinta","S02_C2",679,1.405,"El alum2 pintó su cuader2",695,787,866,991,1006,1094,1909,"pintó",3,"ams",99
"164","ams17",18,119,4,0.4,6,0.6,0,0,"1: IA_TARGET","2: IA_DISTRACTOR","0: NULL",1,2159,2,"pinta","S02_C2",679,1.405,"El alum2 pintó su cuader2",695,787,866,991,1006,1094,1909,"pintó",1,"ams",99
"165","ams19",29,119,0,0,10,1,0,0,"1: IA_TARGET","2: IA_DISTRACTOR","0: NULL",1,2311,2,"pinta","S02_C2",679,1.405,"El alum2 pintó su cuader2",695,787,866,991,1006,1094,1909,"pintó",3,"ams",99
"166","ies01",54,119,0,0,10,1,0,0,"1: IA_TARGET","2: IA_DISTRACTOR","0: NULL",1,2466,2,"pinta","S02_C2",679,1.405,"El alum2 pintó su cuader2",695,787,866,991,1006,1094,1909,"pintó",1,"ies",99
"167","ies03",38,119,0,0,10,1,0,0,"1: IA_TARGET","2: IA_DISTRACTOR","0: NULL",1,2356,2,"pinta","S02_C2",679,1.405,"El alum2 pintó su cuader2",695,787,866,991,1006,1094,1909,"pintó",3,"ies",99
"168","ies05",5,119,0,0,10,1,0,0,"1: IA_TARGET","2: IA_DISTRACTOR","0: NULL",1,2208,2,"pinta","S02_C2",679,1.405,"El alum2 pintó su cuader2",695,787,866,991,1006,1094,1909,"pintó",1,"ies",99
"169","ies07",30,119,0,0,0,0,10,1,"1: IA_TARGET","2: IA_DISTRACTOR","0: NULL",1,2240,2,"pinta","S02_C2",679,1.405,"El alum2 pintó su cuader2",695,787,866,991,1006,1094,1909,"pintó",3,"ies",99
"170","ies09",50,119,0,0,0,0,10,1,"1: IA_TARGET","2: IA_DISTRACTOR","0: NULL",1,2635,2,"pinta","S02_C2",679,1.405,"El alum2 pintó su cuader2",695,787,866,991,1006,1094,1909,"pintó",1,"ies",99
"171","ies11",67,119,0,0,0,0,10,1,"1: IA_TARGET","2: IA_DISTRACTOR","0: NULL",1,2792,2,"pinta","S02_C2",679,1.405,"El alum2 pintó su cuader2",695,787,866,991,1006,1094,1909,"pintó",3,"ies",99
"172","ies13",43,119,0,0,0,0,10,1,"1: IA_TARGET","2: IA_DISTRACTOR","0: NULL",1,2261,2,"pinta","S02_C2",679,1.405,"El alum2 pintó su cuader2",695,787,866,991,1006,1094,1909,"pintó",1,"ies",99
"173","ims01",79,119,0,0,0,0,10,1,"1: IA_TARGET","2: IA_DISTRACTOR","0: NULL",1,2595,2,"pinta","S02_C2",679,1.405,"El alum2 pintó su cuader2",695,787,866,991,1006,1094,1909,"pintó",3,"ims",99
"174","ims03",43,119,0,0,0,0,10,1,"1: IA_TARGET","2: IA_DISTRACTOR","0: NULL",1,2117,2,"pinta","S02_C2",679,1.405,"El alum2 pintó su cuader2",695,787,866,991,1006,1094,1909,"pintó",3,"ims",99
"175","ims05",39,119,0,0,10,1,0,0,"1: IA_TARGET","2: IA_DISTRACTOR","0: NULL",1,2370,2,"pinta","S02_C2",679,1.405,"El alum2 pintó su cuader2",695,787,866,991,1006,1094,1909,"pintó",3,"ims",99
"176","ims07",40,119,0,0,0,0,10,1,"1: IA_TARGET","2: IA_DISTRACTOR","0: NULL",1,2533,2,"pinta","S02_C2",679,1.405,"El alum2 pintó su cuader2",695,787,866,991,1006,1094,1909,"pintó",1,"ims",99
"177","ims09",95,119,0,0,0,0,0,0,"1: IA_TARGET","2: IA_DISTRACTOR","0: NULL",1,2310,2,"pinta","S02_C2",679,1.405,"El alum2 pintó su cuader2",695,787,866,991,1006,1094,1909,"pintó",3,"ims",99
"178","ims11",65,119,0,0,0,0,10,1,"1: IA_TARGET","2: IA_DISTRACTOR","0: NULL",1,2248,2,"pinta","S02_C2",679,1.405,"El alum2 pintó su cuader2",695,787,866,991,1006,1094,1909,"pintó",1,"ims",99
"179","ims13",41,119,0,0,10,1,0,0,"1: IA_TARGET","2: IA_DISTRACTOR","0: NULL",1,2338,2,"pinta","S02_C2",679,1.405,"El alum2 pintó su cuader2",695,787,866,991,1006,1094,1909,"pintó",3,"ims",99
"180","mon01",71,119,0,0,10,1,0,0,"1: IA_TARGET","2: IA_DISTRACTOR","0: NULL",1,2557,2,"pinta","S02_C2",679,1.405,"El alum2 pintó su cuader2",695,787,866,991,1006,1094,1909,"pintó",1,"mon",99
"181","mon03",19,119,0,0,10,1,0,0,"1: IA_TARGET","2: IA_DISTRACTOR","0: NULL",1,2473,2,"pinta","S02_C2",679,1.405,"El alum2 pintó su cuader2",695,787,866,991,1006,1094,1909,"pintó",3,"mon",99
"182","mon05",68,119,0,0,0,0,10,1,"1: IA_TARGET","2: IA_DISTRACTOR","0: NULL",1,2834,2,"pinta","S02_C2",679,1.405,"El alum2 pintó su cuader2",695,787,866,991,1006,1094,1909,"pintó",1,"mon",99
"183","mon07",30,119,0,0,0,0,10,1,"1: IA_TARGET","2: IA_DISTRACTOR","0: NULL",1,2072,2,"pinta","S02_C2",679,1.405,"El alum2 pintó su cuader2",695,787,866,991,1006,1094,1909,"pintó",3,"mon",99
"184","mon09",48,119,0,0,0,0,10,1,"1: IA_TARGET","2: IA_DISTRACTOR","0: NULL",1,2402,2,"pinta","S02_C2",679,1.405,"El alum2 pintó su cuader2",695,787,866,991,1006,1094,1909,"pintó",1,"mon",99
"185","mon11",91,119,0,0,0,0,10,1,"1: IA_TARGET","2: IA_DISTRACTOR","0: NULL",1,2588,2,"pinta","S02_C2",679,1.405,"El alum2 pintó su cuader2",695,787,866,991,1006,1094,1909,"pintó",3,"mon",99
"186","mon13",6,119,0,0,10,1,0,0,"1: IA_TARGET","2: IA_DISTRACTOR","0: NULL",1,2124,2,"pinta","S02_C2",679,1.405,"El alum2 pintó su cuader2",695,787,866,991,1006,1094,1909,"pintó",1,"mon",99
"187","mon15",62,119,0,0,0,0,10,1,"1: IA_TARGET","2: IA_DISTRACTOR","0: NULL",1,2416,2,"pinta","S02_C2",679,1.405,"El alum2 pintó su cuader2",695,787,866,991,1006,1094,1909,"pintó",3,"mon",99
"188","mon17",77,119,0,0,0,0,10,1,"1: IA_TARGET","2: IA_DISTRACTOR","0: NULL",1,2262,2,"pinta","S02_C2",679,1.405,"El alum2 pintó su cuader2",695,787,866,991,1006,1094,1909,"pintó",1,"mon",99
"189","mon19",98,119,0,0,10,1,0,0,"1: IA_TARGET","2: IA_DISTRACTOR","0: NULL",1,2544,2,"pinta","S02_C2",679,1.405,"El alum2 pintó su cuader2",695,787,866,991,1006,1094,1909,"pintó",3,"mon",99
"190","mon21",62,119,0,0,10,1,0,0,"1: IA_TARGET","2: IA_DISTRACTOR","0: NULL",1,2875,2,"pinta","S02_C2",679,1.405,"El alum2 pintó su cuader2",695,787,866,991,1006,1094,1909,"pintó",1,"mon",99
"191","mon23",46,119,0,0,10,1,0,0,"1: IA_TARGET","2: IA_DISTRACTOR","0: NULL",1,2022,2,"pinta","S02_C2",679,1.405,"El alum2 pintó su cuader2",695,787,866,991,1006,1094,1909,"pintó",3,"mon",99
"192","mon25",63,119,0,0,10,1,0,0,"1: IA_TARGET","2: IA_DISTRACTOR","0: NULL",1,2333,2,"pinta","S02_C2",679,1.405,"El alum2 pintó su cuader2",695,787,866,991,1006,1094,1909,"pintó",1,"mon",99
"193","mon27",5,119,0,0,10,1,0,0,"1: IA_TARGET","2: IA_DISTRACTOR","0: NULL",1,2114,2,"pinta","S02_C2",679,1.405,"El alum2 pintó su cuader2",695,787,866,991,1006,1094,1909,"pintó",3,"mon",99
"194","mon29",49,119,0,0,0,0,10,1,"1: IA_TARGET","2: IA_DISTRACTOR","0: NULL",1,2448,2,"pinta","S02_C2",679,1.405,"El alum2 pintó su cuader2",695,787,866,991,1006,1094,1909,"pintó",1,"mon",99
"195","aes01",28,138,0,0,0,0,10,1,"1: IA_TARGET","2: IA_DISTRACTOR","0: NULL",1,2482,1,"firmó","S03_C1",9124,1.274,"El científico firma la patente",930,1043,1135,1185,1274,1336,2157,"firma",3,"aes",118
"196","aes03",17,138,0,0,0,0,10,1,"1: IA_TARGET","2: IA_DISTRACTOR","0: NULL",1,2042,1,"firmó","S03_C1",9124,1.274,"El científico firma la patente",930,1043,1135,1185,1274,1336,2157,"firma",1,"aes",118
"197","aes05",89,138,0,0,10,1,0,0,"1: IA_TARGET","2: IA_DISTRACTOR","0: NULL",1,2251,1,"firmó","S03_C1",9124,1.274,"El científico firma la patente",930,1043,1135,1185,1274,1336,2157,"firma",3,"aes",118
"198","aes07",74,138,0,0,0,0,10,1,"1: IA_TARGET","2: IA_DISTRACTOR","0: NULL",1,2080,1,"firmó","S03_C1",9124,1.274,"El científico firma la patente",930,1043,1135,1185,1274,1336,2157,"firma",1,"aes",118
"199","aes09",53,138,0,0,10,1,0,0,"1: IA_TARGET","2: IA_DISTRACTOR","0: NULL",1,2224,1,"firmó","S03_C1",9124,1.274,"El científico firma la patente",930,1043,1135,1185,1274,1336,2157,"firma",3,"aes",118
"200","aes11",28,138,0,0,0,0,10,1,"1: IA_TARGET","2: IA_DISTRACTOR","0: NULL",1,2716,1,"firmó","S03_C1",9124,1.274,"El científico firma la patente",930,1043,1135,1185,1274,1336,2157,"firma",1,"aes",118
"201","aes13",86,138,0,0,0,0,10,1,"1: IA_TARGET","2: IA_DISTRACTOR","0: NULL",1,2029,1,"firmó","S03_C1",9124,1.274,"El científico firma la patente",930,1043,1135,1185,1274,1336,2157,"firma",3,"aes",118
"202","aes15",25,138,0,0,10,1,0,0,"1: IA_TARGET","2: IA_DISTRACTOR","0: NULL",1,2372,1,"firmó","S03_C1",9124,1.274,"El científico firma la patente",930,1043,1135,1185,1274,1336,2157,"firma",1,"aes",118
"203","aes17",88,138,0,0,10,1,0,0,"1: IA_TARGET","2: IA_DISTRACTOR","0: NULL",1,2162,1,"firmó","S03_C1",9124,1.274,"El científico firma la patente",930,1043,1135,1185,1274,1336,2157,"firma",3,"aes",118
"204","aes19",8,138,10,1,0,0,0,0,"1: IA_TARGET","2: IA_DISTRACTOR","0: NULL",1,6259,1,"firmó","S03_C1",9124,1.274,"El científico firma la patente",930,1043,1135,1185,1274,1336,2157,"firma",1,"aes",118
"205","aes21",39,138,0,0,0,0,10,1,"1: IA_TARGET","2: IA_DISTRACTOR","0: NULL",1,2109,1,"firmó","S03_C1",9124,1.274,"El científico firma la patente",930,1043,1135,1185,1274,1336,2157,"firma",3,"aes",118
"206","ams01",97,138,0,0,10,1,0,0,"1: IA_TARGET","2: IA_DISTRACTOR","0: NULL",1,2004,1,"firmó","S03_C1",9124,1.274,"El científico firma la patente",930,1043,1135,1185,1274,1336,2157,"firma",1,"ams",118
"207","ams03",27,138,0,0,10,1,0,0,"1: IA_TARGET","2: IA_DISTRACTOR","0: NULL",1,2317,1,"firmó","S03_C1",9124,1.274,"El científico firma la patente",930,1043,1135,1185,1274,1336,2157,"firma",3,"ams",118
"208","ams05",67,138,0,0,10,1,0,0,"1: IA_TARGET","2: IA_DISTRACTOR","0: NULL",1,2090,1,"firmó","S03_C1",9124,1.274,"El científico firma la patente",930,1043,1135,1185,1274,1336,2157,"firma",1,"ams",118
"209","ams07",88,138,0,0,0,0,10,1,"1: IA_TARGET","2: IA_DISTRACTOR","0: NULL",1,2555,1,"firmó","S03_C1",9124,1.274,"El científico firma la patente",930,1043,1135,1185,1274,1336,2157,"firma",3,"ams",118
"210","ams09",92,138,0,0,0,0,10,1,"1: IA_TARGET","2: IA_DISTRACTOR","0: NULL",1,2077,1,"firmó","S03_C1",9124,1.274,"El científico firma la patente",930,1043,1135,1185,1274,1336,2157,"firma",1,"ams",118
"211","ams11",34,138,0,0,10,1,0,0,"1: IA_TARGET","2: IA_DISTRACTOR","0: NULL",1,2442,1,"firmó","S03_C1",9124,1.274,"El científico firma la patente",930,1043,1135,1185,1274,1336,2157,"firma",3,"ams",118
"212","ams13",38,138,0,0,10,1,0,0,"1: IA_TARGET","2: IA_DISTRACTOR","0: NULL",1,2023,1,"firmó","S03_C1",9124,1.274,"El científico firma la patente",930,1043,1135,1185,1274,1336,2157,"firma",1,"ams",118
"213","ams15",22,138,0,0,10,1,0,0,"1: IA_TARGET","2: IA_DISTRACTOR","0: NULL",1,2948,1,"firmó","S03_C1",9124,1.274,"El científico firma la patente",930,1043,1135,1185,1274,1336,2157,"firma",3,"ams",118
"214","ams17",38,138,0,0,10,1,0,0,"1: IA_TARGET","2: IA_DISTRACTOR","0: NULL",1,2266,1,"firmó","S03_C1",9124,1.274,"El científico firma la patente",930,1043,1135,1185,1274,1336,2157,"firma",1,"ams",118
"215","ams19",43,138,0,0,0,0,10,1,"1: IA_TARGET","2: IA_DISTRACTOR","0: NULL",1,2798,1,"firmó","S03_C1",9124,1.274,"El científico firma la patente",930,1043,1135,1185,1274,1336,2157,"firma",3,"ams",118
"216","ies01",73,138,0,0,10,1,0,0,"1: IA_TARGET","2: IA_DISTRACTOR","0: NULL",1,2175,1,"firmó","S03_C1",9124,1.274,"El científico firma la patente",930,1043,1135,1185,1274,1336,2157,"firma",1,"ies",118
"217","ies03",42,138,0,0,10,1,0,0,"1: IA_TARGET","2: IA_DISTRACTOR","0: NULL",1,2034,1,"firmó","S03_C1",9124,1.274,"El científico firma la patente",930,1043,1135,1185,1274,1336,2157,"firma",3,"ies",118
"218","ies05",40,138,0,0,10,1,0,0,"1: IA_TARGET","2: IA_DISTRACTOR","0: NULL",1,2209,1,"firmó","S03_C1",9124,1.274,"El científico firma la patente",930,1043,1135,1185,1274,1336,2157,"firma",1,"ies",118
"219","ies07",25,138,0,0,10,1,0,0,"1: IA_TARGET","2: IA_DISTRACTOR","0: NULL",1,2766,1,"firmó","S03_C1",9124,1.274,"El científico firma la patente",930,1043,1135,1185,1274,1336,2157,"firma",3,"ies",118
"220","ies09",97,138,0,0,0,0,10,1,"1: IA_TARGET","2: IA_DISTRACTOR","0: NULL",1,2694,1,"firmó","S03_C1",9124,1.274,"El científico firma la patente",930,1043,1135,1185,1274,1336,2157,"firma",1,"ies",118
"221","ies11",26,138,0,0,0,0,10,1,"1: IA_TARGET","2: IA_DISTRACTOR","0: NULL",1,2669,1,"firmó","S03_C1",9124,1.274,"El científico firma la patente",930,1043,1135,1185,1274,1336,2157,"firma",3,"ies",118
"222","ies13",98,138,0,0,0,0,10,1,"1: IA_TARGET","2: IA_DISTRACTOR","0: NULL",1,3121,1,"firmó","S03_C1",9124,1.274,"El científico firma la patente",930,1043,1135,1185,1274,1336,2157,"firma",1,"ies",118
"223","ims01",44,138,0,0,0,0,10,1,"1: IA_TARGET","2: IA_DISTRACTOR","0: NULL",1,2688,1,"firmó","S03_C1",9124,1.274,"El científico firma la patente",930,1043,1135,1185,1274,1336,2157,"firma",3,"ims",118
"224","ims03",100,138,0,0,0,0,10,1,"1: IA_TARGET","2: IA_DISTRACTOR","0: NULL",1,2176,1,"firmó","S03_C1",9124,1.274,"El científico firma la patente",930,1043,1135,1185,1274,1336,2157,"firma",3,"ims",118
"225","ims05",64,138,0,0,0,0,0,0,"1: IA_TARGET","2: IA_DISTRACTOR","0: NULL",1,2305,1,"firmó","S03_C1",9124,1.274,"El científico firma la patente",930,1043,1135,1185,1274,1336,2157,"firma",3,"ims",118
"226","ims07",52,138,0,0,0,0,10,1,"1: IA_TARGET","2: IA_DISTRACTOR","0: NULL",1,2420,1,"firmó","S03_C1",9124,1.274,"El científico firma la patente",930,1043,1135,1185,1274,1336,2157,"firma",1,"ims",118
"227","ims09",18,138,0,0,0,0,10,1,"1: IA_TARGET","2: IA_DISTRACTOR","0: NULL",1,2454,1,"firmó","S03_C1",9124,1.274,"El científico firma la patente",930,1043,1135,1185,1274,1336,2157,"firma",3,"ims",118
"228","ims11",48,138,0,0,0,0,10,1,"1: IA_TARGET","2: IA_DISTRACTOR","0: NULL",1,2345,1,"firmó","S03_C1",9124,1.274,"El científico firma la patente",930,1043,1135,1185,1274,1336,2157,"firma",1,"ims",118
"229","ims13",17,138,0,0,0,0,10,1,"1: IA_TARGET","2: IA_DISTRACTOR","0: NULL",1,2643,1,"firmó","S03_C1",9124,1.274,"El científico firma la patente",930,1043,1135,1185,1274,1336,2157,"firma",3,"ims",118
"230","mon01",33,138,0,0,0,0,10,1,"1: IA_TARGET","2: IA_DISTRACTOR","0: NULL",1,2229,1,"firmó","S03_C1",9124,1.274,"El científico firma la patente",930,1043,1135,1185,1274,1336,2157,"firma",1,"mon",118
"231","mon03",85,138,0,0,10,1,0,0,"1: IA_TARGET","2: IA_DISTRACTOR","0: NULL",1,2075,1,"firmó","S03_C1",9124,1.274,"El científico firma la patente",930,1043,1135,1185,1274,1336,2157,"firma",3,"mon",118
"232","mon05",40,138,0,0,0,0,10,1,"1: IA_TARGET","2: IA_DISTRACTOR","0: NULL",1,2281,1,"firmó","S03_C1",9124,1.274,"El científico firma la patente",930,1043,1135,1185,1274,1336,2157,"firma",1,"mon",118
"233","mon07",63,138,0,0,0,0,10,1,"1: IA_TARGET","2: IA_DISTRACTOR","0: NULL",1,2288,1,"firmó","S03_C1",9124,1.274,"El científico firma la patente",930,1043,1135,1185,1274,1336,2157,"firma",3,"mon",118
"234","mon09",99,138,0,0,10,1,0,0,"1: IA_TARGET","2: IA_DISTRACTOR","0: NULL",1,2316,1,"firmó","S03_C1",9124,1.274,"El científico firma la patente",930,1043,1135,1185,1274,1336,2157,"firma",1,"mon",118
"235","mon11",59,138,0,0,10,1,0,0,"1: IA_TARGET","2: IA_DISTRACTOR","0: NULL",1,2465,1,"firmó","S03_C1",9124,1.274,"El científico firma la patente",930,1043,1135,1185,1274,1336,2157,"firma",3,"mon",118
"236","mon13",87,138,0,0,10,1,0,0,"1: IA_TARGET","2: IA_DISTRACTOR","0: NULL",1,2293,1,"firmó","S03_C1",9124,1.274,"El científico firma la patente",930,1043,1135,1185,1274,1336,2157,"firma",1,"mon",118
"237","mon15",36,138,0,0,0,0,10,1,"1: IA_TARGET","2: IA_DISTRACTOR","0: NULL",1,3177,1,"firmó","S03_C1",9124,1.274,"El científico firma la patente",930,1043,1135,1185,1274,1336,2157,"firma",3,"mon",118
"238","mon17",58,138,0,0,0,0,10,1,"1: IA_TARGET","2: IA_DISTRACTOR","0: NULL",1,2257,1,"firmó","S03_C1",9124,1.274,"El científico firma la patente",930,1043,1135,1185,1274,1336,2157,"firma",1,"mon",118
"239","mon19",88,138,0,0,0,0,10,1,"1: IA_TARGET","2: IA_DISTRACTOR","0: NULL",1,2628,1,"firmó","S03_C1",9124,1.274,"El científico firma la patente",930,1043,1135,1185,1274,1336,2157,"firma",3,"mon",118
"240","mon21",52,138,0,0,10,1,0,0,"1: IA_TARGET","2: IA_DISTRACTOR","0: NULL",1,2269,1,"firmó","S03_C1",9124,1.274,"El científico firma la patente",930,1043,1135,1185,1274,1336,2157,"firma",1,"mon",118
"241","mon23",64,138,0,0,0,0,10,1,"1: IA_TARGET","2: IA_DISTRACTOR","0: NULL",1,2015,1,"firmó","S03_C1",9124,1.274,"El científico firma la patente",930,1043,1135,1185,1274,1336,2157,"firma",3,"mon",118
"242","mon25",83,138,0,0,0,0,10,1,"1: IA_TARGET","2: IA_DISTRACTOR","0: NULL",1,2017,1,"firmó","S03_C1",9124,1.274,"El científico firma la patente",930,1043,1135,1185,1274,1336,2157,"firma",1,"mon",118
"243","mon27",68,138,0,0,10,1,0,0,"1: IA_TARGET","2: IA_DISTRACTOR","0: NULL",1,2079,1,"firmó","S03_C1",9124,1.274,"El científico firma la patente",930,1043,1135,1185,1274,1336,2157,"firma",3,"mon",118
"244","mon29",23,138,0,0,10,1,0,0,"1: IA_TARGET","2: IA_DISTRACTOR","0: NULL",1,2277,1,"firmó","S03_C1",9124,1.274,"El científico firma la patente",930,1043,1135,1185,1274,1336,2157,"firma",1,"mon",118
"245","aes02",71,134,0,0,0,0,10,1,"1: IA_TARGET","2: IA_DISTRACTOR","0: NULL",1,2414,2,"firma","S03_C2",2227,1.2207,"El científico firmó la patente",931,1023,1108,1142,1225,1307,2166,"firmó",4,"aes",114
"246","aes04",26,134,0,0,10,1,0,0,"1: IA_TARGET","2: IA_DISTRACTOR","0: NULL",1,2707,2,"firma","S03_C2",2227,1.2207,"El científico firmó la patente",931,1023,1108,1142,1225,1307,2166,"firmó",2,"aes",114
"247","aes06",5,134,0,0,0,0,0,0,"1: IA_TARGET","2: IA_DISTRACTOR","0: NULL",1,2307,2,"firma","S03_C2",2227,1.2207,"El científico firmó la patente",931,1023,1108,1142,1225,1307,2166,"firmó",4,"aes",114
"248","aes08",29,134,0,0,0,0,10,1,"1: IA_TARGET","2: IA_DISTRACTOR","0: NULL",1,2130,2,"firma","S03_C2",2227,1.2207,"El científico firmó la patente",931,1023,1108,1142,1225,1307,2166,"firmó",2,"aes",114
"249","aes10",39,134,10,1,0,0,0,0,"1: IA_TARGET","2: IA_DISTRACTOR","0: NULL",1,3065,2,"firma","S03_C2",2227,1.2207,"El científico firmó la patente",931,1023,1108,1142,1225,1307,2166,"firmó",4,"aes",114
"250","aes12",84,134,0,0,10,1,0,0,"1: IA_TARGET","2: IA_DISTRACTOR","0: NULL",1,2333,2,"firma","S03_C2",2227,1.2207,"El científico firmó la patente",931,1023,1108,1142,1225,1307,2166,"firmó",2,"aes",114
"251","aes14",50,134,0,0,10,1,0,0,"1: IA_TARGET","2: IA_DISTRACTOR","0: NULL",1,2181,2,"firma","S03_C2",2227,1.2207,"El científico firmó la patente",931,1023,1108,1142,1225,1307,2166,"firmó",4,"aes",114
"252","aes16",32,134,0,0,10,1,0,0,"1: IA_TARGET","2: IA_DISTRACTOR","0: NULL",1,2418,2,"firma","S03_C2",2227,1.2207,"El científico firmó la patente",931,1023,1108,1142,1225,1307,2166,"firmó",2,"aes",114
"253","aes18",43,134,0,0,10,1,0,0,"1: IA_TARGET","2: IA_DISTRACTOR","0: NULL",1,2165,2,"firma","S03_C2",2227,1.2207,"El científico firmó la patente",931,1023,1108,1142,1225,1307,2166,"firmó",4,"aes",114
"254","aes20",28,134,0,0,0,0,10,1,"1: IA_TARGET","2: IA_DISTRACTOR","0: NULL",1,2596,2,"firma","S03_C2",2227,1.2207,"El científico firmó la patente",931,1023,1108,1142,1225,1307,2166,"firmó",2,"aes",114
"255","ams02",46,134,0,0,10,1,0,0,"1: IA_TARGET","2: IA_DISTRACTOR","0: NULL",1,2654,2,"firma","S03_C2",2227,1.2207,"El científico firmó la patente",931,1023,1108,1142,1225,1307,2166,"firmó",2,"ams",114
"256","ams04",39,134,0,0,10,1,0,0,"1: IA_TARGET","2: IA_DISTRACTOR","0: NULL",1,2029,2,"firma","S03_C2",2227,1.2207,"El científico firmó la patente",931,1023,1108,1142,1225,1307,2166,"firmó",4,"ams",114
"257","ams06",98,134,0,0,0,0,10,1,"1: IA_TARGET","2: IA_DISTRACTOR","0: NULL",1,2674,2,"firma","S03_C2",2227,1.2207,"El científico firmó la patente",931,1023,1108,1142,1225,1307,2166,"firmó",2,"ams",114
"258","ams08",10,134,0,0,10,1,0,0,"1: IA_TARGET","2: IA_DISTRACTOR","0: NULL",1,2249,2,"firma","S03_C2",2227,1.2207,"El científico firmó la patente",931,1023,1108,1142,1225,1307,2166,"firmó",4,"ams",114
"259","ams10",63,134,0,0,0,0,10,1,"1: IA_TARGET","2: IA_DISTRACTOR","0: NULL",1,2400,2,"firma","S03_C2",2227,1.2207,"El científico firmó la patente",931,1023,1108,1142,1225,1307,2166,"firmó",2,"ams",114
"260","ams12",8,134,0,0,10,1,0,0,"1: IA_TARGET","2: IA_DISTRACTOR","0: NULL",1,2446,2,"firma","S03_C2",2227,1.2207,"El científico firmó la patente",931,1023,1108,1142,1225,1307,2166,"firmó",4,"ams",114
"261","ams14",53,134,0,0,0,0,10,1,"1: IA_TARGET","2: IA_DISTRACTOR","0: NULL",1,2138,2,"firma","S03_C2",2227,1.2207,"El científico firmó la patente",931,1023,1108,1142,1225,1307,2166,"firmó",2,"ams",114
"262","ams16",49,134,0,0,10,1,0,0,"1: IA_TARGET","2: IA_DISTRACTOR","0: NULL",1,2455,2,"firma","S03_C2",2227,1.2207,"El científico firmó la patente",931,1023,1108,1142,1225,1307,2166,"firmó",4,"ams",114
"263","ams18",51,134,0,0,0,0,10,1,"1: IA_TARGET","2: IA_DISTRACTOR","0: NULL",1,2600,2,"firma","S03_C2",2227,1.2207,"El científico firmó la patente",931,1023,1108,1142,1225,1307,2166,"firmó",2,"ams",114
"264","ies02",38,134,0,0,0,0,10,1,"1: IA_TARGET","2: IA_DISTRACTOR","0: NULL",1,2042,2,"firma","S03_C2",2227,1.2207,"El científico firmó la patente",931,1023,1108,1142,1225,1307,2166,"firmó",2,"ies",114
"265","ies04",97,134,0,0,0,0,10,1,"1: IA_TARGET","2: IA_DISTRACTOR","0: NULL",1,2218,2,"firma","S03_C2",2227,1.2207,"El científico firmó la patente",931,1023,1108,1142,1225,1307,2166,"firmó",4,"ies",114
"266","ies06",21,134,0,0,10,1,0,0,"1: IA_TARGET","2: IA_DISTRACTOR","0: NULL",1,2133,2,"firma","S03_C2",2227,1.2207,"El científico firmó la patente",931,1023,1108,1142,1225,1307,2166,"firmó",2,"ies",114
"267","ies08",26,134,0,0,10,1,0,0,"1: IA_TARGET","2: IA_DISTRACTOR","0: NULL",1,2234,2,"firma","S03_C2",2227,1.2207,"El científico firmó la patente",931,1023,1108,1142,1225,1307,2166,"firmó",4,"ies",114
"268","ies10",9,134,0,0,0,0,10,1,"1: IA_TARGET","2: IA_DISTRACTOR","0: NULL",1,2075,2,"firma","S03_C2",2227,1.2207,"El científico firmó la patente",931,1023,1108,1142,1225,1307,2166,"firmó",2,"ies",114
"269","ies12",96,134,0,0,10,1,0,0,"1: IA_TARGET","2: IA_DISTRACTOR","0: NULL",1,2462,2,"firma","S03_C2",2227,1.2207,"El científico firmó la patente",931,1023,1108,1142,1225,1307,2166,"firmó",4,"ies",114
"270","ies14",73,134,0,0,6,1,0,0,"1: IA_TARGET","2: IA_DISTRACTOR","0: NULL",1,2581,2,"firma","S03_C2",2227,1.2207,"El científico firmó la patente",931,1023,1108,1142,1225,1307,2166,"firmó",2,"ies",114
"271","ims02",39,134,0,0,10,1,0,0,"1: IA_TARGET","2: IA_DISTRACTOR","0: NULL",1,2323,2,"firma","S03_C2",2227,1.2207,"El científico firmó la patente",931,1023,1108,1142,1225,1307,2166,"firmó",4,"ims",114
"272","ims04",41,134,0,0,10,1,0,0,"1: IA_TARGET","2: IA_DISTRACTOR","0: NULL",1,2142,2,"firma","S03_C2",2227,1.2207,"El científico firmó la patente",931,1023,1108,1142,1225,1307,2166,"firmó",2,"ims",114
"273","ims06",14,134,0,0,10,1,0,0,"1: IA_TARGET","2: IA_DISTRACTOR","0: NULL",1,2612,2,"firma","S03_C2",2227,1.2207,"El científico firmó la patente",931,1023,1108,1142,1225,1307,2166,"firmó",4,"ims",114
"274","ims08",72,134,0,0,0,0,0,0,"1: IA_TARGET","2: IA_DISTRACTOR","0: NULL",1,2581,2,"firma","S03_C2",2227,1.2207,"El científico firmó la patente",931,1023,1108,1142,1225,1307,2166,"firmó",2,"ims",114
"275","ims10",76,134,0,0,10,1,0,0,"1: IA_TARGET","2: IA_DISTRACTOR","0: NULL",1,2607,2,"firma","S03_C2",2227,1.2207,"El científico firmó la patente",931,1023,1108,1142,1225,1307,2166,"firmó",4,"ims",114
"276","ims12",58,134,0,0,10,1,0,0,"1: IA_TARGET","2: IA_DISTRACTOR","0: NULL",1,2306,2,"firma","S03_C2",2227,1.2207,"El científico firmó la patente",931,1023,1108,1142,1225,1307,2166,"firmó",2,"ims",114
"277","ims14",13,134,2,0.2,0,0,8,0.8,"1: IA_TARGET","2: IA_DISTRACTOR","0: NULL",1,2237,2,"firma","S03_C2",2227,1.2207,"El científico firmó la patente",931,1023,1108,1142,1225,1307,2166,"firmó",4,"ims",114
"278","mon02",30,134,0,0,0,0,10,1,"1: IA_TARGET","2: IA_DISTRACTOR","0: NULL",1,2400,2,"firma","S03_C2",2227,1.2207,"El científico firmó la patente",931,1023,1108,1142,1225,1307,2166,"firmó",2,"mon",114
"279","mon04",47,134,0,0,0,0,10,1,"1: IA_TARGET","2: IA_DISTRACTOR","0: NULL",1,2670,2,"firma","S03_C2",2227,1.2207,"El científico firmó la patente",931,1023,1108,1142,1225,1307,2166,"firmó",4,"mon",114
"280","mon06",87,134,0,0,10,1,0,0,"1: IA_TARGET","2: IA_DISTRACTOR","0: NULL",1,2289,2,"firma","S03_C2",2227,1.2207,"El científico firmó la patente",931,1023,1108,1142,1225,1307,2166,"firmó",2,"mon",114
"281","mon08",72,134,0,0,10,1,0,0,"1: IA_TARGET","2: IA_DISTRACTOR","0: NULL",1,2064,2,"firma","S03_C2",2227,1.2207,"El científico firmó la patente",931,1023,1108,1142,1225,1307,2166,"firmó",4,"mon",114
"282","mon10",20,134,0,0,0,0,10,1,"1: IA_TARGET","2: IA_DISTRACTOR","0: NULL",1,2101,2,"firma","S03_C2",2227,1.2207,"El científico firmó la patente",931,1023,1108,1142,1225,1307,2166,"firmó",2,"mon",114
"283","mon12",63,134,0,0,0,0,10,1,"1: IA_TARGET","2: IA_DISTRACTOR","0: NULL",1,2020,2,"firma","S03_C2",2227,1.2207,"El científico firmó la patente",931,1023,1108,1142,1225,1307,2166,"firmó",4,"mon",114
"284","mon14",41,134,0,0,10,1,0,0,"1: IA_TARGET","2: IA_DISTRACTOR","0: NULL",1,2134,2,"firma","S03_C2",2227,1.2207,"El científico firmó la patente",931,1023,1108,1142,1225,1307,2166,"firmó",2,"mon",114
"285","mon16",87,134,0,0,10,1,0,0,"1: IA_TARGET","2: IA_DISTRACTOR","0: NULL",1,2552,2,"firma","S03_C2",2227,1.2207,"El científico firmó la patente",931,1023,1108,1142,1225,1307,2166,"firmó",4,"mon",114
"286","mon18",92,134,10,1,0,0,0,0,"1: IA_TARGET","2: IA_DISTRACTOR","0: NULL",1,2116,2,"firma","S03_C2",2227,1.2207,"El científico firmó la patente",931,1023,1108,1142,1225,1307,2166,"firmó",2,"mon",114
"287","mon20",6,134,0,0,10,1,0,0,"1: IA_TARGET","2: IA_DISTRACTOR","0: NULL",1,2558,2,"firma","S03_C2",2227,1.2207,"El científico firmó la patente",931,1023,1108,1142,1225,1307,2166,"firmó",4,"mon",114
"288","mon22",95,134,0,0,10,1,0,0,"1: IA_TARGET","2: IA_DISTRACTOR","0: NULL",1,3503,2,"firma","S03_C2",2227,1.2207,"El científico firmó la patente",931,1023,1108,1142,1225,1307,2166,"firmó",2,"mon",114
"289","mon24",15,134,0,0,0,0,10,1,"1: IA_TARGET","2: IA_DISTRACTOR","0: NULL",1,2745,2,"firma","S03_C2",2227,1.2207,"El científico firmó la patente",931,1023,1108,1142,1225,1307,2166,"firmó",4,"mon",114
"290","mon26",26,134,0,0,10,1,0,0,"1: IA_TARGET","2: IA_DISTRACTOR","0: NULL",1,2035,2,"firma","S03_C2",2227,1.2207,"El científico firmó la patente",931,1023,1108,1142,1225,1307,2166,"firmó",2,"mon",114
"291","mon28",55,134,0,0,10,1,0,0,"1: IA_TARGET","2: IA_DISTRACTOR","0: NULL",1,2477,2,"firma","S03_C2",2227,1.2207,"El científico firmó la patente",931,1023,1108,1142,1225,1307,2166,"firmó",4,"mon",114
"292","mon30",82,134,0,0,10,1,0,0,"1: IA_TARGET","2: IA_DISTRACTOR","0: NULL",1,2384,2,"firma","S03_C2",2227,1.2207,"El científico firmó la patente",931,1023,1108,1142,1225,1307,2166,"firmó",2,"mon",114
"293","aes02",74,118,0,0,0,0,0,0,"1: IA_TARGET","2: IA_DISTRACTOR","0: NULL",1,2100,1,"planchó","S04_C1",1189,1.4129,"La esposa plancha las camisas",672,827,913,984,1037,1102,2150,"plancha",4,"aes",98
"294","aes04",22,118,0,0,0,0,10,1,"1: IA_TARGET","2: IA_DISTRACTOR","0: NULL",1,2577,1,"planchó","S04_C1",1189,1.4129,"La esposa plancha las camisas",672,827,913,984,1037,1102,2150,"plancha",2,"aes",98
"295","aes06",9,118,10,1,0,0,0,0,"1: IA_TARGET","2: IA_DISTRACTOR","0: NULL",1,2628,1,"planchó","S04_C1",1189,1.4129,"La esposa plancha las camisas",672,827,913,984,1037,1102,2150,"plancha",4,"aes",98
"296","aes08",37,118,0,0,10,1,0,0,"1: IA_TARGET","2: IA_DISTRACTOR","0: NULL",1,2049,1,"planchó","S04_C1",1189,1.4129,"La esposa plancha las camisas",672,827,913,984,1037,1102,2150,"plancha",2,"aes",98
"297","aes10",29,118,0,0,0,0,10,1,"1: IA_TARGET","2: IA_DISTRACTOR","0: NULL",1,3626,1,"planchó","S04_C1",1189,1.4129,"La esposa plancha las camisas",672,827,913,984,1037,1102,2150,"plancha",4,"aes",98
"298","aes12",85,118,0,0,0,0,10,1,"1: IA_TARGET","2: IA_DISTRACTOR","0: NULL",1,2040,1,"planchó","S04_C1",1189,1.4129,"La esposa plancha las camisas",672,827,913,984,1037,1102,2150,"plancha",2,"aes",98
"299","aes14",46,118,0,0,10,1,0,0,"1: IA_TARGET","2: IA_DISTRACTOR","0: NULL",1,2409,1,"planchó","S04_C1",1189,1.4129,"La esposa plancha las camisas",672,827,913,984,1037,1102,2150,"plancha",4,"aes",98
"300","aes16",31,118,0,0,10,1,0,0,"1: IA_TARGET","2: IA_DISTRACTOR","0: NULL",1,2184,1,"planchó","S04_C1",1189,1.4129,"La esposa plancha las camisas",672,827,913,984,1037,1102,2150,"plancha",2,"aes",98
"301","aes18",48,118,0,0,0,0,10,1,"1: IA_TARGET","2: IA_DISTRACTOR","0: NULL",1,2039,1,"planchó","S04_C1",1189,1.4129,"La esposa plancha las camisas",672,827,913,984,1037,1102,2150,"plancha",4,"aes",98
"302","aes20",27,118,0,0,10,1,0,0,"1: IA_TARGET","2: IA_DISTRACTOR","0: NULL",1,2448,1,"planchó","S04_C1",1189,1.4129,"La esposa plancha las camisas",672,827,913,984,1037,1102,2150,"plancha",2,"aes",98
"303","ams02",52,118,0,0,0,0,10,1,"1: IA_TARGET","2: IA_DISTRACTOR","0: NULL",1,2688,1,"planchó","S04_C1",1189,1.4129,"La esposa plancha las camisas",672,827,913,984,1037,1102,2150,"plancha",2,"ams",98
"304","ams04",36,118,0,0,0,0,10,1,"1: IA_TARGET","2: IA_DISTRACTOR","0: NULL",1,2072,1,"planchó","S04_C1",1189,1.4129,"La esposa plancha las camisas",672,827,913,984,1037,1102,2150,"plancha",4,"ams",98
"305","ams06",99,118,0,0,0,0,10,1,"1: IA_TARGET","2: IA_DISTRACTOR","0: NULL",1,3425,1,"planchó","S04_C1",1189,1.4129,"La esposa plancha las camisas",672,827,913,984,1037,1102,2150,"plancha",2,"ams",98
"306","ams08",11,118,0,0,0,0,10,1,"1: IA_TARGET","2: IA_DISTRACTOR","0: NULL",1,2134,1,"planchó","S04_C1",1189,1.4129,"La esposa plancha las camisas",672,827,913,984,1037,1102,2150,"plancha",4,"ams",98
"307","ams10",64,118,0,0,10,1,0,0,"1: IA_TARGET","2: IA_DISTRACTOR","0: NULL",1,3004,1,"planchó","S04_C1",1189,1.4129,"La esposa plancha las camisas",672,827,913,984,1037,1102,2150,"plancha",2,"ams",98
"308","ams12",16,118,0,0,0,0,10,1,"1: IA_TARGET","2: IA_DISTRACTOR","0: NULL",1,2315,1,"planchó","S04_C1",1189,1.4129,"La esposa plancha las camisas",672,827,913,984,1037,1102,2150,"plancha",4,"ams",98
"309","ams14",58,118,0,0,10,1,0,0,"1: IA_TARGET","2: IA_DISTRACTOR","0: NULL",1,2028,1,"planchó","S04_C1",1189,1.4129,"La esposa plancha las camisas",672,827,913,984,1037,1102,2150,"plancha",2,"ams",98
"310","ams16",50,118,0,0,0,0,10,1,"1: IA_TARGET","2: IA_DISTRACTOR","0: NULL",1,2184,1,"planchó","S04_C1",1189,1.4129,"La esposa plancha las camisas",672,827,913,984,1037,1102,2150,"plancha",4,"ams",98
"311","ams18",45,118,0,0,0,0,0,0,"1: IA_TARGET","2: IA_DISTRACTOR","0: NULL",1,2524,1,"planchó","S04_C1",1189,1.4129,"La esposa plancha las camisas",672,827,913,984,1037,1102,2150,"plancha",2,"ams",98
"312","ies02",34,118,0,0,0,0,10,1,"1: IA_TARGET","2: IA_DISTRACTOR","0: NULL",1,2052,1,"planchó","S04_C1",1189,1.4129,"La esposa plancha las camisas",672,827,913,984,1037,1102,2150,"plancha",2,"ies",98
"313","ies04",93,118,0,0,0,0,10,1,"1: IA_TARGET","2: IA_DISTRACTOR","0: NULL",1,2054,1,"planchó","S04_C1",1189,1.4129,"La esposa plancha las camisas",672,827,913,984,1037,1102,2150,"plancha",4,"ies",98
"314","ies06",26,118,0,0,0,0,10,1,"1: IA_TARGET","2: IA_DISTRACTOR","0: NULL",1,2520,1,"planchó","S04_C1",1189,1.4129,"La esposa plancha las camisas",672,827,913,984,1037,1102,2150,"plancha",2,"ies",98
"315","ies08",17,118,0,0,0,0,10,1,"1: IA_TARGET","2: IA_DISTRACTOR","0: NULL",1,2791,1,"planchó","S04_C1",1189,1.4129,"La esposa plancha las camisas",672,827,913,984,1037,1102,2150,"plancha",4,"ies",98
"316","ies10",12,118,10,1,0,0,0,0,"1: IA_TARGET","2: IA_DISTRACTOR","0: NULL",1,2460,1,"planchó","S04_C1",1189,1.4129,"La esposa plancha las camisas",672,827,913,984,1037,1102,2150,"plancha",2,"ies",98
"317","ies12",90,118,0,0,0,0,10,1,"1: IA_TARGET","2: IA_DISTRACTOR","0: NULL",1,2071,1,"planchó","S04_C1",1189,1.4129,"La esposa plancha las camisas",672,827,913,984,1037,1102,2150,"plancha",4,"ies",98
"318","ies14",72,118,0,0,10,1,0,0,"1: IA_TARGET","2: IA_DISTRACTOR","0: NULL",1,2150,1,"planchó","S04_C1",1189,1.4129,"La esposa plancha las camisas",672,827,913,984,1037,1102,2150,"plancha",2,"ies",98
"319","ims02",32,118,0,0,0,0,0,0,"1: IA_TARGET","2: IA_DISTRACTOR","0: NULL",1,2371,1,"planchó","S04_C1",1189,1.4129,"La esposa plancha las camisas",672,827,913,984,1037,1102,2150,"plancha",4,"ims",98
"320","ims04",50,118,0,0,0,0,10,1,"1: IA_TARGET","2: IA_DISTRACTOR","0: NULL",1,2109,1,"planchó","S04_C1",1189,1.4129,"La esposa plancha las camisas",672,827,913,984,1037,1102,2150,"plancha",2,"ims",98
"321","ims06",15,118,0,0,10,1,0,0,"1: IA_TARGET","2: IA_DISTRACTOR","0: NULL",1,2609,1,"planchó","S04_C1",1189,1.4129,"La esposa plancha las camisas",672,827,913,984,1037,1102,2150,"plancha",4,"ims",98
"322","ims08",67,118,0,0,0,0,10,1,"1: IA_TARGET","2: IA_DISTRACTOR","0: NULL",1,2360,1,"planchó","S04_C1",1189,1.4129,"La esposa plancha las camisas",672,827,913,984,1037,1102,2150,"plancha",2,"ims",98
"323","ims10",69,118,0,0,0,0,0,0,"1: IA_TARGET","2: IA_DISTRACTOR","0: NULL",1,2531,1,"planchó","S04_C1",1189,1.4129,"La esposa plancha las camisas",672,827,913,984,1037,1102,2150,"plancha",4,"ims",98
"324","ims12",61,118,0,0,0,0,0,0,"1: IA_TARGET","2: IA_DISTRACTOR","0: NULL",1,2010,1,"planchó","S04_C1",1189,1.4129,"La esposa plancha las camisas",672,827,913,984,1037,1102,2150,"plancha",2,"ims",98
"325","ims14",8,118,0,0,0,0,10,1,"1: IA_TARGET","2: IA_DISTRACTOR","0: NULL",1,2276,1,"planchó","S04_C1",1189,1.4129,"La esposa plancha las camisas",672,827,913,984,1037,1102,2150,"plancha",4,"ims",98
"326","mon02",35,118,0,0,10,1,0,0,"1: IA_TARGET","2: IA_DISTRACTOR","0: NULL",1,2166,1,"planchó","S04_C1",1189,1.4129,"La esposa plancha las camisas",672,827,913,984,1037,1102,2150,"plancha",2,"mon",98
"327","mon04",43,118,0,0,10,1,0,0,"1: IA_TARGET","2: IA_DISTRACTOR","0: NULL",1,2281,1,"planchó","S04_C1",1189,1.4129,"La esposa plancha las camisas",672,827,913,984,1037,1102,2150,"plancha",4,"mon",98
"328","mon06",85,118,0,0,10,1,0,0,"1: IA_TARGET","2: IA_DISTRACTOR","0: NULL",1,2525,1,"planchó","S04_C1",1189,1.4129,"La esposa plancha las camisas",672,827,913,984,1037,1102,2150,"plancha",2,"mon",98
"329","mon08",69,118,0,0,10,1,0,0,"1: IA_TARGET","2: IA_DISTRACTOR","0: NULL",1,2164,1,"planchó","S04_C1",1189,1.4129,"La esposa plancha las camisas",672,827,913,984,1037,1102,2150,"plancha",4,"mon",98
"330","mon10",27,118,0,0,10,1,0,0,"1: IA_TARGET","2: IA_DISTRACTOR","0: NULL",1,2446,1,"planchó","S04_C1",1189,1.4129,"La esposa plancha las camisas",672,827,913,984,1037,1102,2150,"plancha",2,"mon",98
"331","mon12",59,118,0,0,10,1,0,0,"1: IA_TARGET","2: IA_DISTRACTOR","0: NULL",1,2015,1,"planchó","S04_C1",1189,1.4129,"La esposa plancha las camisas",672,827,913,984,1037,1102,2150,"plancha",4,"mon",98
"332","mon14",42,118,0,0,10,1,0,0,"1: IA_TARGET","2: IA_DISTRACTOR","0: NULL",1,2108,1,"planchó","S04_C1",1189,1.4129,"La esposa plancha las camisas",672,827,913,984,1037,1102,2150,"plancha",2,"mon",98
"333","mon16",88,118,0,0,0,0,10,1,"1: IA_TARGET","2: IA_DISTRACTOR","0: NULL",1,2268,1,"planchó","S04_C1",1189,1.4129,"La esposa plancha las camisas",672,827,913,984,1037,1102,2150,"plancha",4,"mon",98
"334","mon18",95,118,10,1,0,0,0,0,"1: IA_TARGET","2: IA_DISTRACTOR","0: NULL",1,2964,1,"planchó","S04_C1",1189,1.4129,"La esposa plancha las camisas",672,827,913,984,1037,1102,2150,"plancha",2,"mon",98
"335","mon20",7,118,0,0,10,1,0,0,"1: IA_TARGET","2: IA_DISTRACTOR","0: NULL",1,2205,1,"planchó","S04_C1",1189,1.4129,"La esposa plancha las camisas",672,827,913,984,1037,1102,2150,"plancha",4,"mon",98
"336","mon22",96,118,0,0,10,1,0,0,"1: IA_TARGET","2: IA_DISTRACTOR","0: NULL",1,2281,1,"planchó","S04_C1",1189,1.4129,"La esposa plancha las camisas",672,827,913,984,1037,1102,2150,"plancha",2,"mon",98
"337","mon24",16,118,0,0,10,1,0,0,"1: IA_TARGET","2: IA_DISTRACTOR","0: NULL",1,2557,1,"planchó","S04_C1",1189,1.4129,"La esposa plancha las camisas",672,827,913,984,1037,1102,2150,"plancha",4,"mon",98
"338","mon26",25,118,0,0,10,1,0,0,"1: IA_TARGET","2: IA_DISTRACTOR","0: NULL",1,2434,1,"planchó","S04_C1",1189,1.4129,"La esposa plancha las camisas",672,827,913,984,1037,1102,2150,"plancha",2,"mon",98
"339","mon28",54,118,0,0,0,0,10,1,"1: IA_TARGET","2: IA_DISTRACTOR","0: NULL",1,2581,1,"planchó","S04_C1",1189,1.4129,"La esposa plancha las camisas",672,827,913,984,1037,1102,2150,"plancha",4,"mon",98
"340","mon30",79,118,0,0,10,1,0,0,"1: IA_TARGET","2: IA_DISTRACTOR","0: NULL",1,2167,1,"planchó","S04_C1",1189,1.4129,"La esposa plancha las camisas",672,827,913,984,1037,1102,2150,"plancha",2,"mon",98
"341","aes01",25,129,0,0,10,1,0,0,"1: IA_TARGET","2: IA_DISTRACTOR","0: NULL",1,2225,2,"plancha","S04_C2",12,1.3304,"La esposa planchó las camisas",742,894,973,1091,1167,1262,2294,"planchó",3,"aes",109
"342","aes03",20,129,0,0,10,1,0,0,"1: IA_TARGET","2: IA_DISTRACTOR","0: NULL",1,2084,2,"plancha","S04_C2",12,1.3304,"La esposa planchó las camisas",742,894,973,1091,1167,1262,2294,"planchó",1,"aes",109
"343","aes05",96,129,0,0,10,1,0,0,"1: IA_TARGET","2: IA_DISTRACTOR","0: NULL",1,2141,2,"plancha","S04_C2",12,1.3304,"La esposa planchó las camisas",742,894,973,1091,1167,1262,2294,"planchó",3,"aes",109
"344","aes07",73,129,0,0,10,1,0,0,"1: IA_TARGET","2: IA_DISTRACTOR","0: NULL",1,2102,2,"plancha","S04_C2",12,1.3304,"La esposa planchó las camisas",742,894,973,1091,1167,1262,2294,"planchó",1,"aes",109
"345","aes09",62,129,0,0,0,0,10,1,"1: IA_TARGET","2: IA_DISTRACTOR","0: NULL",1,2209,2,"plancha","S04_C2",12,1.3304,"La esposa planchó las camisas",742,894,973,1091,1167,1262,2294,"planchó",3,"aes",109
"346","aes11",20,129,0,0,0,0,0,0,"1: IA_TARGET","2: IA_DISTRACTOR","0: NULL",1,2675,2,"plancha","S04_C2",12,1.3304,"La esposa planchó las camisas",742,894,973,1091,1167,1262,2294,"planchó",1,"aes",109
"347","aes13",77,129,0,0,0,0,10,1,"1: IA_TARGET","2: IA_DISTRACTOR","0: NULL",1,2124,2,"plancha","S04_C2",12,1.3304,"La esposa planchó las camisas",742,894,973,1091,1167,1262,2294,"planchó",3,"aes",109
"348","aes15",26,129,0,0,10,1,0,0,"1: IA_TARGET","2: IA_DISTRACTOR","0: NULL",1,2122,2,"plancha","S04_C2",12,1.3304,"La esposa planchó las camisas",742,894,973,1091,1167,1262,2294,"planchó",1,"aes",109
"349","aes17",83,129,0,0,0,0,10,1,"1: IA_TARGET","2: IA_DISTRACTOR","0: NULL",1,2060,2,"plancha","S04_C2",12,1.3304,"La esposa planchó las camisas",742,894,973,1091,1167,1262,2294,"planchó",3,"aes",109
"350","aes19",11,129,0,0,10,1,0,0,"1: IA_TARGET","2: IA_DISTRACTOR","0: NULL",1,3355,2,"plancha","S04_C2",12,1.3304,"La esposa planchó las camisas",742,894,973,1091,1167,1262,2294,"planchó",1,"aes",109
"351","aes21",34,129,0,0,10,1,0,0,"1: IA_TARGET","2: IA_DISTRACTOR","0: NULL",1,2271,2,"plancha","S04_C2",12,1.3304,"La esposa planchó las camisas",742,894,973,1091,1167,1262,2294,"planchó",3,"aes",109
"352","ams01",95,129,0,0,0,0,10,1,"1: IA_TARGET","2: IA_DISTRACTOR","0: NULL",1,2497,2,"plancha","S04_C2",12,1.3304,"La esposa planchó las camisas",742,894,973,1091,1167,1262,2294,"planchó",1,"ams",109
"353","ams03",18,129,0,0,0,0,10,1,"1: IA_TARGET","2: IA_DISTRACTOR","0: NULL",1,2075,2,"plancha","S04_C2",12,1.3304,"La esposa planchó las camisas",742,894,973,1091,1167,1262,2294,"planchó",3,"ams",109
"354","ams05",70,129,0,0,10,1,0,0,"1: IA_TARGET","2: IA_DISTRACTOR","0: NULL",1,2593,2,"plancha","S04_C2",12,1.3304,"La esposa planchó las camisas",742,894,973,1091,1167,1262,2294,"planchó",1,"ams",109
"355","ams07",86,129,5,0.5,0,0,5,0.5,"1: IA_TARGET","2: IA_DISTRACTOR","0: NULL",1,2475,2,"plancha","S04_C2",12,1.3304,"La esposa planchó las camisas",742,894,973,1091,1167,1262,2294,"planchó",3,"ams",109
"356","ams09",94,129,0,0,0,0,0,0,"1: IA_TARGET","2: IA_DISTRACTOR","0: NULL",1,2416,2,"plancha","S04_C2",12,1.3304,"La esposa planchó las camisas",742,894,973,1091,1167,1262,2294,"planchó",1,"ams",109
"357","ams11",36,129,10,1,0,0,0,0,"1: IA_TARGET","2: IA_DISTRACTOR","0: NULL",1,2355,2,"plancha","S04_C2",12,1.3304,"La esposa planchó las camisas",742,894,973,1091,1167,1262,2294,"planchó",3,"ams",109
"358","ams13",39,129,0,0,0,0,10,1,"1: IA_TARGET","2: IA_DISTRACTOR","0: NULL",1,2058,2,"plancha","S04_C2",12,1.3304,"La esposa planchó las camisas",742,894,973,1091,1167,1262,2294,"planchó",1,"ams",109
"359","ams15",19,129,0,0,0,0,10,1,"1: IA_TARGET","2: IA_DISTRACTOR","0: NULL",1,2153,2,"plancha","S04_C2",12,1.3304,"La esposa planchó las camisas",742,894,973,1091,1167,1262,2294,"planchó",3,"ams",109
"360","ams17",29,129,0,0,0,0,10,1,"1: IA_TARGET","2: IA_DISTRACTOR","0: NULL",1,2236,2,"plancha","S04_C2",12,1.3304,"La esposa planchó las camisas",742,894,973,1091,1167,1262,2294,"planchó",1,"ams",109
"361","ams19",52,129,0,0,0,0,10,1,"1: IA_TARGET","2: IA_DISTRACTOR","0: NULL",1,2508,2,"plancha","S04_C2",12,1.3304,"La esposa planchó las camisas",742,894,973,1091,1167,1262,2294,"planchó",3,"ams",109
"362","ies01",74,129,0,0,10,1,0,0,"1: IA_TARGET","2: IA_DISTRACTOR","0: NULL",1,2355,2,"plancha","S04_C2",12,1.3304,"La esposa planchó las camisas",742,894,973,1091,1167,1262,2294,"planchó",1,"ies",109
"363","ies03",52,129,0,0,0,0,10,1,"1: IA_TARGET","2: IA_DISTRACTOR","0: NULL",1,2364,2,"plancha","S04_C2",12,1.3304,"La esposa planchó las camisas",742,894,973,1091,1167,1262,2294,"planchó",3,"ies",109
"364","ies05",29,129,0,0,10,1,0,0,"1: IA_TARGET","2: IA_DISTRACTOR","0: NULL",1,2022,2,"plancha","S04_C2",12,1.3304,"La esposa planchó las camisas",742,894,973,1091,1167,1262,2294,"planchó",1,"ies",109
"365","ies07",27,129,0,0,10,1,0,0,"1: IA_TARGET","2: IA_DISTRACTOR","0: NULL",1,2394,2,"plancha","S04_C2",12,1.3304,"La esposa planchó las camisas",742,894,973,1091,1167,1262,2294,"planchó",3,"ies",109
"366","ies09",92,129,0,0,0,0,10,1,"1: IA_TARGET","2: IA_DISTRACTOR","0: NULL",1,2171,2,"plancha","S04_C2",12,1.3304,"La esposa planchó las camisas",742,894,973,1091,1167,1262,2294,"planchó",1,"ies",109
"367","ies11",19,129,0,0,0,0,10,1,"1: IA_TARGET","2: IA_DISTRACTOR","0: NULL",1,2767,2,"plancha","S04_C2",12,1.3304,"La esposa planchó las camisas",742,894,973,1091,1167,1262,2294,"planchó",3,"ies",109
"368","ies13",90,129,0,0,0,0,10,1,"1: IA_TARGET","2: IA_DISTRACTOR","0: NULL",1,2302,2,"plancha","S04_C2",12,1.3304,"La esposa planchó las camisas",742,894,973,1091,1167,1262,2294,"planchó",1,"ies",109
"369","ims01",52,129,0,0,10,1,0,0,"1: IA_TARGET","2: IA_DISTRACTOR","0: NULL",1,2596,2,"plancha","S04_C2",12,1.3304,"La esposa planchó las camisas",742,894,973,1091,1167,1262,2294,"planchó",3,"ims",109
"370","ims03",92,129,0,0,10,1,0,0,"1: IA_TARGET","2: IA_DISTRACTOR","0: NULL",1,2461,2,"plancha","S04_C2",12,1.3304,"La esposa planchó las camisas",742,894,973,1091,1167,1262,2294,"planchó",3,"ims",109
"371","ims05",63,129,0,0,0,0,10,1,"1: IA_TARGET","2: IA_DISTRACTOR","0: NULL",1,2882,2,"plancha","S04_C2",12,1.3304,"La esposa planchó las camisas",742,894,973,1091,1167,1262,2294,"planchó",3,"ims",109
"372","ims07",49,129,0,0,0,0,10,1,"1: IA_TARGET","2: IA_DISTRACTOR","0: NULL",1,2617,2,"plancha","S04_C2",12,1.3304,"La esposa planchó las camisas",742,894,973,1091,1167,1262,2294,"planchó",1,"ims",109
"373","ims09",25,129,0,0,0,0,10,1,"1: IA_TARGET","2: IA_DISTRACTOR","0: NULL",1,2391,2,"plancha","S04_C2",12,1.3304,"La esposa planchó las camisas",742,894,973,1091,1167,1262,2294,"planchó",3,"ims",109
"374","ims11",41,129,0,0,10,1,0,0,"1: IA_TARGET","2: IA_DISTRACTOR","0: NULL",1,2339,2,"plancha","S04_C2",12,1.3304,"La esposa planchó las camisas",742,894,973,1091,1167,1262,2294,"planchó",1,"ims",109
"375","ims13",18,129,1,0.1,9,0.9,0,0,"1: IA_TARGET","2: IA_DISTRACTOR","0: NULL",1,2611,2,"plancha","S04_C2",12,1.3304,"La esposa planchó las camisas",742,894,973,1091,1167,1262,2294,"planchó",3,"ims",109
"376","mon01",38,129,0,0,10,1,0,0,"1: IA_TARGET","2: IA_DISTRACTOR","0: NULL",1,2707,2,"plancha","S04_C2",12,1.3304,"La esposa planchó las camisas",742,894,973,1091,1167,1262,2294,"planchó",1,"mon",109
"377","mon03",80,129,0,0,10,1,0,0,"1: IA_TARGET","2: IA_DISTRACTOR","0: NULL",1,2403,2,"plancha","S04_C2",12,1.3304,"La esposa planchó las camisas",742,894,973,1091,1167,1262,2294,"planchó",3,"mon",109
"378","mon05",39,129,0,0,10,1,0,0,"1: IA_TARGET","2: IA_DISTRACTOR","0: NULL",1,2038,2,"plancha","S04_C2",12,1.3304,"La esposa planchó las camisas",742,894,973,1091,1167,1262,2294,"planchó",1,"mon",109
"379","mon07",60,129,0,0,10,1,0,0,"1: IA_TARGET","2: IA_DISTRACTOR","0: NULL",1,2044,2,"plancha","S04_C2",12,1.3304,"La esposa planchó las camisas",742,894,973,1091,1167,1262,2294,"planchó",3,"mon",109
"380","mon09",98,129,0,0,10,1,0,0,"1: IA_TARGET","2: IA_DISTRACTOR","0: NULL",1,2590,2,"plancha","S04_C2",12,1.3304,"La esposa planchó las camisas",742,894,973,1091,1167,1262,2294,"planchó",1,"mon",109
"381","mon11",60,129,0,0,10,1,0,0,"1: IA_TARGET","2: IA_DISTRACTOR","0: NULL",1,2289,2,"plancha","S04_C2",12,1.3304,"La esposa planchó las camisas",742,894,973,1091,1167,1262,2294,"planchó",3,"mon",109
"382","mon13",86,129,0,0,0,0,10,1,"1: IA_TARGET","2: IA_DISTRACTOR","0: NULL",1,2513,2,"plancha","S04_C2",12,1.3304,"La esposa planchó las camisas",742,894,973,1091,1167,1262,2294,"planchó",1,"mon",109
"383","mon15",35,129,0,0,0,0,10,1,"1: IA_TARGET","2: IA_DISTRACTOR","0: NULL",1,3047,2,"plancha","S04_C2",12,1.3304,"La esposa planchó las camisas",742,894,973,1091,1167,1262,2294,"planchó",3,"mon",109
"384","mon17",60,129,0,0,10,1,0,0,"1: IA_TARGET","2: IA_DISTRACTOR","0: NULL",1,2058,2,"plancha","S04_C2",12,1.3304,"La esposa planchó las camisas",742,894,973,1091,1167,1262,2294,"planchó",1,"mon",109
"385","mon19",87,129,0,0,0,0,10,1,"1: IA_TARGET","2: IA_DISTRACTOR","0: NULL",1,2235,2,"plancha","S04_C2",12,1.3304,"La esposa planchó las camisas",742,894,973,1091,1167,1262,2294,"planchó",3,"mon",109
"386","mon21",42,129,0,0,10,1,0,0,"1: IA_TARGET","2: IA_DISTRACTOR","0: NULL",1,2954,2,"plancha","S04_C2",12,1.3304,"La esposa planchó las camisas",742,894,973,1091,1167,1262,2294,"planchó",1,"mon",109
"387","mon23",59,129,0,0,10,1,0,0,"1: IA_TARGET","2: IA_DISTRACTOR","0: NULL",1,2371,2,"plancha","S04_C2",12,1.3304,"La esposa planchó las camisas",742,894,973,1091,1167,1262,2294,"planchó",3,"mon",109
"388","mon25",88,129,0,0,10,1,0,0,"1: IA_TARGET","2: IA_DISTRACTOR","0: NULL",1,2078,2,"plancha","S04_C2",12,1.3304,"La esposa planchó las camisas",742,894,973,1091,1167,1262,2294,"planchó",1,"mon",109
"389","mon27",65,129,0,0,10,1,0,0,"1: IA_TARGET","2: IA_DISTRACTOR","0: NULL",1,2113,2,"plancha","S04_C2",12,1.3304,"La esposa planchó las camisas",742,894,973,1091,1167,1262,2294,"planchó",3,"mon",109
"390","mon29",19,129,0,0,0,0,10,1,"1: IA_TARGET","2: IA_DISTRACTOR","0: NULL",1,2190,2,"plancha","S04_C2",12,1.3304,"La esposa planchó las camisas",742,894,973,1091,1167,1262,2294,"planchó",1,"mon",109
"391","aes01",65,128,0,0,10,1,0,0,"1: IA_TARGET","2: IA_DISTRACTOR","0: NULL",1,2332,1,"cantó","S05_C1",1941,1.4325,"La amiga canta la ópera",712,812,920,1081,1092,1177,1902,"canta",3,"aes",108
"392","aes03",76,128,0,0,10,1,0,0,"1: IA_TARGET","2: IA_DISTRACTOR","0: NULL",1,2009,1,"cantó","S05_C1",1941,1.4325,"La amiga canta la ópera",712,812,920,1081,1092,1177,1902,"canta",1,"aes",108
"393","aes05",61,128,0,0,10,1,0,0,"1: IA_TARGET","2: IA_DISTRACTOR","0: NULL",1,3019,1,"cantó","S05_C1",1941,1.4325,"La amiga canta la ópera",712,812,920,1081,1092,1177,1902,"canta",3,"aes",108
"394","aes07",38,128,0,0,10,1,0,0,"1: IA_TARGET","2: IA_DISTRACTOR","0: NULL",1,3197,1,"cantó","S05_C1",1941,1.4325,"La amiga canta la ópera",712,812,920,1081,1092,1177,1902,"canta",1,"aes",108
"395","aes09",93,128,0,0,0,0,10,1,"1: IA_TARGET","2: IA_DISTRACTOR","0: NULL",1,3323,1,"cantó","S05_C1",1941,1.4325,"La amiga canta la ópera",712,812,920,1081,1092,1177,1902,"canta",3,"aes",108
"396","aes11",61,128,0,0,0,0,10,1,"1: IA_TARGET","2: IA_DISTRACTOR","0: NULL",1,2535,1,"cantó","S05_C1",1941,1.4325,"La amiga canta la ópera",712,812,920,1081,1092,1177,1902,"canta",1,"aes",108
"397","aes13",15,128,0,0,0,0,10,1,"1: IA_TARGET","2: IA_DISTRACTOR","0: NULL",1,2118,1,"cantó","S05_C1",1941,1.4325,"La amiga canta la ópera",712,812,920,1081,1092,1177,1902,"canta",3,"aes",108
"398","aes15",11,128,0,0,10,1,0,0,"1: IA_TARGET","2: IA_DISTRACTOR","0: NULL",1,2727,1,"cantó","S05_C1",1941,1.4325,"La amiga canta la ópera",712,812,920,1081,1092,1177,1902,"canta",1,"aes",108
"399","aes17",52,128,0,0,0,0,10,1,"1: IA_TARGET","2: IA_DISTRACTOR","0: NULL",1,2387,1,"cantó","S05_C1",1941,1.4325,"La amiga canta la ópera",712,812,920,1081,1092,1177,1902,"canta",3,"aes",108
"400","aes19",20,128,0,0,10,1,0,0,"1: IA_TARGET","2: IA_DISTRACTOR","0: NULL",1,2212,1,"cantó","S05_C1",1941,1.4325,"La amiga canta la ópera",712,812,920,1081,1092,1177,1902,"canta",1,"aes",108
"401","aes21",5,128,0,0,10,1,0,0,"1: IA_TARGET","2: IA_DISTRACTOR","0: NULL",1,2137,1,"cantó","S05_C1",1941,1.4325,"La amiga canta la ópera",712,812,920,1081,1092,1177,1902,"canta",3,"aes",108
"402","ams01",61,128,0,0,10,1,0,0,"1: IA_TARGET","2: IA_DISTRACTOR","0: NULL",1,2422,1,"cantó","S05_C1",1941,1.4325,"La amiga canta la ópera",712,812,920,1081,1092,1177,1902,"canta",1,"ams",108
"403","ams03",56,128,0,0,10,1,0,0,"1: IA_TARGET","2: IA_DISTRACTOR","0: NULL",1,2135,1,"cantó","S05_C1",1941,1.4325,"La amiga canta la ópera",712,812,920,1081,1092,1177,1902,"canta",3,"ams",108
"404","ams05",6,128,0,0,0,0,0,0,"1: IA_TARGET","2: IA_DISTRACTOR","0: NULL",1,2908,1,"cantó","S05_C1",1941,1.4325,"La amiga canta la ópera",712,812,920,1081,1092,1177,1902,"canta",1,"ams",108
"405","ams07",56,128,0,0,0,0,10,1,"1: IA_TARGET","2: IA_DISTRACTOR","0: NULL",1,2203,1,"cantó","S05_C1",1941,1.4325,"La amiga canta la ópera",712,812,920,1081,1092,1177,1902,"canta",3,"ams",108
"406","ams09",46,128,0,0,10,1,0,0,"1: IA_TARGET","2: IA_DISTRACTOR","0: NULL",1,2343,1,"cantó","S05_C1",1941,1.4325,"La amiga canta la ópera",712,812,920,1081,1092,1177,1902,"canta",1,"ams",108
"407","ams11",72,128,0,0,0,0,10,1,"1: IA_TARGET","2: IA_DISTRACTOR","0: NULL",1,3043,1,"cantó","S05_C1",1941,1.4325,"La amiga canta la ópera",712,812,920,1081,1092,1177,1902,"canta",3,"ams",108
"408","ams13",87,128,0,0,10,1,0,0,"1: IA_TARGET","2: IA_DISTRACTOR","0: NULL",1,2140,1,"cantó","S05_C1",1941,1.4325,"La amiga canta la ópera",712,812,920,1081,1092,1177,1902,"canta",1,"ams",108
"409","ams15",45,128,0,0,0,0,10,1,"1: IA_TARGET","2: IA_DISTRACTOR","0: NULL",1,2355,1,"cantó","S05_C1",1941,1.4325,"La amiga canta la ópera",712,812,920,1081,1092,1177,1902,"canta",3,"ams",108
"410","ams17",47,128,0,0,0,0,10,1,"1: IA_TARGET","2: IA_DISTRACTOR","0: NULL",1,2167,1,"cantó","S05_C1",1941,1.4325,"La amiga canta la ópera",712,812,920,1081,1092,1177,1902,"canta",1,"ams",108
"411","ams19",71,128,0,0,10,1,0,0,"1: IA_TARGET","2: IA_DISTRACTOR","0: NULL",1,2081,1,"cantó","S05_C1",1941,1.4325,"La amiga canta la ópera",712,812,920,1081,1092,1177,1902,"canta",3,"ams",108
"412","ies01",77,128,0,0,10,1,0,0,"1: IA_TARGET","2: IA_DISTRACTOR","0: NULL",1,2156,1,"cantó","S05_C1",1941,1.4325,"La amiga canta la ópera",712,812,920,1081,1092,1177,1902,"canta",1,"ies",108
"413","ies03",69,128,0,0,0,0,10,1,"1: IA_TARGET","2: IA_DISTRACTOR","0: NULL",1,2414,1,"cantó","S05_C1",1941,1.4325,"La amiga canta la ópera",712,812,920,1081,1092,1177,1902,"canta",3,"ies",108
"414","ies05",67,128,4,0.4,6,0.6,0,0,"1: IA_TARGET","2: IA_DISTRACTOR","0: NULL",1,2152,1,"cantó","S05_C1",1941,1.4325,"La amiga canta la ópera",712,812,920,1081,1092,1177,1902,"canta",1,"ies",108
"415","ies07",11,128,0,0,0,0,10,1,"1: IA_TARGET","2: IA_DISTRACTOR","0: NULL",1,2512,1,"cantó","S05_C1",1941,1.4325,"La amiga canta la ópera",712,812,920,1081,1092,1177,1902,"canta",3,"ies",108
"416","ies09",69,128,0,0,10,1,0,0,"1: IA_TARGET","2: IA_DISTRACTOR","0: NULL",1,2431,1,"cantó","S05_C1",1941,1.4325,"La amiga canta la ópera",712,812,920,1081,1092,1177,1902,"canta",1,"ies",108
"417","ies11",38,128,0,0,0,0,10,1,"1: IA_TARGET","2: IA_DISTRACTOR","0: NULL",1,2248,1,"cantó","S05_C1",1941,1.4325,"La amiga canta la ópera",712,812,920,1081,1092,1177,1902,"canta",3,"ies",108
"418","ies13",12,128,0,0,10,1,0,0,"1: IA_TARGET","2: IA_DISTRACTOR","0: NULL",1,2395,1,"cantó","S05_C1",1941,1.4325,"La amiga canta la ópera",712,812,920,1081,1092,1177,1902,"canta",1,"ies",108
"419","ims01",37,128,0,0,10,1,0,0,"1: IA_TARGET","2: IA_DISTRACTOR","0: NULL",1,2295,1,"cantó","S05_C1",1941,1.4325,"La amiga canta la ópera",712,812,920,1081,1092,1177,1902,"canta",3,"ims",108
"420","ims03",84,128,0,0,0,0,10,1,"1: IA_TARGET","2: IA_DISTRACTOR","0: NULL",1,2286,1,"cantó","S05_C1",1941,1.4325,"La amiga canta la ópera",712,812,920,1081,1092,1177,1902,"canta",3,"ims",108
"421","ims05",42,128,0,0,10,1,0,0,"1: IA_TARGET","2: IA_DISTRACTOR","0: NULL",1,2176,1,"cantó","S05_C1",1941,1.4325,"La amiga canta la ópera",712,812,920,1081,1092,1177,1902,"canta",3,"ims",108
"422","ims07",79,128,0,0,10,1,0,0,"1: IA_TARGET","2: IA_DISTRACTOR","0: NULL",1,2412,1,"cantó","S05_C1",1941,1.4325,"La amiga canta la ópera",712,812,920,1081,1092,1177,1902,"canta",1,"ims",108
"423","ims09",45,128,2,0.2,8,0.8,0,0,"1: IA_TARGET","2: IA_DISTRACTOR","0: NULL",1,2085,1,"cantó","S05_C1",1941,1.4325,"La amiga canta la ópera",712,812,920,1081,1092,1177,1902,"canta",3,"ims",108
"424","ims11",23,128,0,0,0,0,10,1,"1: IA_TARGET","2: IA_DISTRACTOR","0: NULL",1,2214,1,"cantó","S05_C1",1941,1.4325,"La amiga canta la ópera",712,812,920,1081,1092,1177,1902,"canta",1,"ims",108
"425","ims13",73,128,0,0,0,0,10,1,"1: IA_TARGET","2: IA_DISTRACTOR","0: NULL",1,2143,1,"cantó","S05_C1",1941,1.4325,"La amiga canta la ópera",712,812,920,1081,1092,1177,1902,"canta",3,"ims",108
"426","mon01",21,128,0,0,10,1,0,0,"1: IA_TARGET","2: IA_DISTRACTOR","0: NULL",1,2806,1,"cantó","S05_C1",1941,1.4325,"La amiga canta la ópera",712,812,920,1081,1092,1177,1902,"canta",1,"mon",108
"427","mon03",76,128,0,0,0,0,10,1,"1: IA_TARGET","2: IA_DISTRACTOR","0: NULL",1,2186,1,"cantó","S05_C1",1941,1.4325,"La amiga canta la ópera",712,812,920,1081,1092,1177,1902,"canta",3,"mon",108
"428","mon05",60,128,0,0,10,1,0,0,"1: IA_TARGET","2: IA_DISTRACTOR","0: NULL",1,2571,1,"cantó","S05_C1",1941,1.4325,"La amiga canta la ópera",712,812,920,1081,1092,1177,1902,"canta",1,"mon",108
"429","mon07",72,128,0,0,10,1,0,0,"1: IA_TARGET","2: IA_DISTRACTOR","0: NULL",1,2402,1,"cantó","S05_C1",1941,1.4325,"La amiga canta la ópera",712,812,920,1081,1092,1177,1902,"canta",3,"mon",108
"430","mon09",34,128,0,0,10,1,0,0,"1: IA_TARGET","2: IA_DISTRACTOR","0: NULL",1,2348,1,"cantó","S05_C1",1941,1.4325,"La amiga canta la ópera",712,812,920,1081,1092,1177,1902,"canta",1,"mon",108
"431","mon11",48,128,0,0,10,1,0,0,"1: IA_TARGET","2: IA_DISTRACTOR","0: NULL",1,2362,1,"cantó","S05_C1",1941,1.4325,"La amiga canta la ópera",712,812,920,1081,1092,1177,1902,"canta",3,"mon",108
"432","mon13",53,128,0,0,10,1,0,0,"1: IA_TARGET","2: IA_DISTRACTOR","0: NULL",1,2195,1,"cantó","S05_C1",1941,1.4325,"La amiga canta la ópera",712,812,920,1081,1092,1177,1902,"canta",1,"mon",108
"433","mon15",69,128,0,0,10,1,0,0,"1: IA_TARGET","2: IA_DISTRACTOR","0: NULL",1,2001,1,"cantó","S05_C1",1941,1.4325,"La amiga canta la ópera",712,812,920,1081,1092,1177,1902,"canta",3,"mon",108
"434","mon17",100,128,0,0,10,1,0,0,"1: IA_TARGET","2: IA_DISTRACTOR","0: NULL",1,2213,1,"cantó","S05_C1",1941,1.4325,"La amiga canta la ópera",712,812,920,1081,1092,1177,1902,"canta",1,"mon",108
"435","mon19",19,128,0,0,10,1,0,0,"1: IA_TARGET","2: IA_DISTRACTOR","0: NULL",1,2230,1,"cantó","S05_C1",1941,1.4325,"La amiga canta la ópera",712,812,920,1081,1092,1177,1902,"canta",3,"mon",108
"436","mon21",7,128,0,0,0,0,10,1,"1: IA_TARGET","2: IA_DISTRACTOR","0: NULL",1,2638,1,"cantó","S05_C1",1941,1.4325,"La amiga canta la ópera",712,812,920,1081,1092,1177,1902,"canta",1,"mon",108
"437","mon23",66,128,0,0,10,1,0,0,"1: IA_TARGET","2: IA_DISTRACTOR","0: NULL",1,2500,1,"cantó","S05_C1",1941,1.4325,"La amiga canta la ópera",712,812,920,1081,1092,1177,1902,"canta",3,"mon",108
"438","mon25",37,128,0,0,10,1,0,0,"1: IA_TARGET","2: IA_DISTRACTOR","0: NULL",1,2366,1,"cantó","S05_C1",1941,1.4325,"La amiga canta la ópera",712,812,920,1081,1092,1177,1902,"canta",1,"mon",108
"439","mon27",64,128,0,0,0,0,10,1,"1: IA_TARGET","2: IA_DISTRACTOR","0: NULL",1,2287,1,"cantó","S05_C1",1941,1.4325,"La amiga canta la ópera",712,812,920,1081,1092,1177,1902,"canta",3,"mon",108
"440","mon29",63,128,0,0,10,1,0,0,"1: IA_TARGET","2: IA_DISTRACTOR","0: NULL",1,2143,1,"cantó","S05_C1",1941,1.4325,"La amiga canta la ópera",712,812,920,1081,1092,1177,1902,"canta",1,"mon",108
"441","aes02",41,103,0,0,10,1,0,0,"1: IA_TARGET","2: IA_DISTRACTOR","0: NULL",1,2007,2,"canta","S05_C2",747,1.3793,"La amiga cantó la ópera",550,621,707,833,847,934,1618,"cantó",4,"aes",83
"442","aes04",11,103,0,0,0,0,10,1,"1: IA_TARGET","2: IA_DISTRACTOR","0: NULL",1,2351,2,"canta","S05_C2",747,1.3793,"La amiga cantó la ópera",550,621,707,833,847,934,1618,"cantó",2,"aes",83
"443","aes06",88,103,0,0,0,0,10,1,"1: IA_TARGET","2: IA_DISTRACTOR","0: NULL",1,2166,2,"canta","S05_C2",747,1.3793,"La amiga cantó la ópera",550,621,707,833,847,934,1618,"cantó",4,"aes",83
"444","aes08",80,103,0,0,10,1,0,0,"1: IA_TARGET","2: IA_DISTRACTOR","0: NULL",1,2212,2,"canta","S05_C2",747,1.3793,"La amiga cantó la ópera",550,621,707,833,847,934,1618,"cantó",2,"aes",83
"445","aes10",47,103,0,0,0,0,10,1,"1: IA_TARGET","2: IA_DISTRACTOR","0: NULL",1,3689,2,"canta","S05_C2",747,1.3793,"La amiga cantó la ópera",550,621,707,833,847,934,1618,"cantó",4,"aes",83
"446","aes12",30,103,10,1,0,0,0,0,"1: IA_TARGET","2: IA_DISTRACTOR","0: NULL",1,2227,2,"canta","S05_C2",747,1.3793,"La amiga cantó la ópera",550,621,707,833,847,934,1618,"cantó",2,"aes",83
"447","aes14",91,103,0,0,0,0,10,1,"1: IA_TARGET","2: IA_DISTRACTOR","0: NULL",1,2154,2,"canta","S05_C2",747,1.3793,"La amiga cantó la ópera",550,621,707,833,847,934,1618,"cantó",4,"aes",83
"448","aes16",43,103,0,0,10,1,0,0,"1: IA_TARGET","2: IA_DISTRACTOR","0: NULL",1,2773,2,"canta","S05_C2",747,1.3793,"La amiga cantó la ópera",550,621,707,833,847,934,1618,"cantó",2,"aes",83
"449","aes18",94,103,0,0,10,1,0,0,"1: IA_TARGET","2: IA_DISTRACTOR","0: NULL",1,2300,2,"canta","S05_C2",747,1.3793,"La amiga cantó la ópera",550,621,707,833,847,934,1618,"cantó",4,"aes",83
"450","aes20",89,103,0,0,10,1,0,0,"1: IA_TARGET","2: IA_DISTRACTOR","0: NULL",1,2394,2,"canta","S05_C2",747,1.3793,"La amiga cantó la ópera",550,621,707,833,847,934,1618,"cantó",2,"aes",83
"451","ams02",72,103,0,0,0,0,0,0,"1: IA_TARGET","2: IA_DISTRACTOR","0: NULL",1,2431,2,"canta","S05_C2",747,1.3793,"La amiga cantó la ópera",550,621,707,833,847,934,1618,"cantó",2,"ams",83
"452","ams04",66,103,0,0,0,0,0,0,"1: IA_TARGET","2: IA_DISTRACTOR","0: NULL",1,3057,2,"canta","S05_C2",747,1.3793,"La amiga cantó la ópera",550,621,707,833,847,934,1618,"cantó",4,"ams",83
"453","ams06",39,103,0,0,0,0,10,1,"1: IA_TARGET","2: IA_DISTRACTOR","0: NULL",1,2554,2,"canta","S05_C2",747,1.3793,"La amiga cantó la ópera",550,621,707,833,847,934,1618,"cantó",2,"ams",83
"454","ams08",48,103,0,0,10,1,0,0,"1: IA_TARGET","2: IA_DISTRACTOR","0: NULL",1,2396,2,"canta","S05_C2",747,1.3793,"La amiga cantó la ópera",550,621,707,833,847,934,1618,"cantó",4,"ams",83
"455","ams10",70,103,0,0,10,1,0,0,"1: IA_TARGET","2: IA_DISTRACTOR","0: NULL",1,2376,2,"canta","S05_C2",747,1.3793,"La amiga cantó la ópera",550,621,707,833,847,934,1618,"cantó",2,"ams",83
"456","ams12",57,103,0,0,10,1,0,0,"1: IA_TARGET","2: IA_DISTRACTOR","0: NULL",1,2308,2,"canta","S05_C2",747,1.3793,"La amiga cantó la ópera",550,621,707,833,847,934,1618,"cantó",4,"ams",83
"457","ams14",43,103,0,0,0,0,10,1,"1: IA_TARGET","2: IA_DISTRACTOR","0: NULL",1,2039,2,"canta","S05_C2",747,1.3793,"La amiga cantó la ópera",550,621,707,833,847,934,1618,"cantó",2,"ams",83
"458","ams16",37,103,0,0,0,0,10,1,"1: IA_TARGET","2: IA_DISTRACTOR","0: NULL",1,2401,2,"canta","S05_C2",747,1.3793,"La amiga cantó la ópera",550,621,707,833,847,934,1618,"cantó",4,"ams",83
"459","ams18",13,103,0,0,10,1,0,0,"1: IA_TARGET","2: IA_DISTRACTOR","0: NULL",1,2193,2,"canta","S05_C2",747,1.3793,"La amiga cantó la ópera",550,621,707,833,847,934,1618,"cantó",2,"ams",83
"460","ies02",54,103,0,0,10,1,0,0,"1: IA_TARGET","2: IA_DISTRACTOR","0: NULL",1,2067,2,"canta","S05_C2",747,1.3793,"La amiga cantó la ópera",550,621,707,833,847,934,1618,"cantó",2,"ies",83
"461","ies04",85,103,0,0,10,1,0,0,"1: IA_TARGET","2: IA_DISTRACTOR","0: NULL",1,2436,2,"canta","S05_C2",747,1.3793,"La amiga cantó la ópera",550,621,707,833,847,934,1618,"cantó",4,"ies",83
"462","ies06",41,103,0,0,0,0,10,1,"1: IA_TARGET","2: IA_DISTRACTOR","0: NULL",1,2270,2,"canta","S05_C2",747,1.3793,"La amiga cantó la ópera",550,621,707,833,847,934,1618,"cantó",2,"ies",83
"463","ies08",62,103,0,0,10,1,0,0,"1: IA_TARGET","2: IA_DISTRACTOR","0: NULL",1,2659,2,"canta","S05_C2",747,1.3793,"La amiga cantó la ópera",550,621,707,833,847,934,1618,"cantó",4,"ies",83
"464","ies10",20,103,0,0,10,1,0,0,"1: IA_TARGET","2: IA_DISTRACTOR","0: NULL",1,3112,2,"canta","S05_C2",747,1.3793,"La amiga cantó la ópera",550,621,707,833,847,934,1618,"cantó",2,"ies",83
"465","ies12",49,103,0,0,0,0,10,1,"1: IA_TARGET","2: IA_DISTRACTOR","0: NULL",1,2216,2,"canta","S05_C2",747,1.3793,"La amiga cantó la ópera",550,621,707,833,847,934,1618,"cantó",4,"ies",83
"466","ies14",44,103,0,0,10,1,0,0,"1: IA_TARGET","2: IA_DISTRACTOR","0: NULL",1,2257,2,"canta","S05_C2",747,1.3793,"La amiga cantó la ópera",550,621,707,833,847,934,1618,"cantó",2,"ies",83
"467","ims02",18,103,0,0,0,0,10,1,"1: IA_TARGET","2: IA_DISTRACTOR","0: NULL",1,2490,2,"canta","S05_C2",747,1.3793,"La amiga cantó la ópera",550,621,707,833,847,934,1618,"cantó",4,"ims",83
"468","ims04",29,103,0,0,10,1,0,0,"1: IA_TARGET","2: IA_DISTRACTOR","0: NULL",1,2010,2,"canta","S05_C2",747,1.3793,"La amiga cantó la ópera",550,621,707,833,847,934,1618,"cantó",2,"ims",83
"469","ims06",62,103,0,0,10,1,0,0,"1: IA_TARGET","2: IA_DISTRACTOR","0: NULL",1,2225,2,"canta","S05_C2",747,1.3793,"La amiga cantó la ópera",550,621,707,833,847,934,1618,"cantó",4,"ims",83
"470","ims08",8,103,3,0.3,7,0.7,0,0,"1: IA_TARGET","2: IA_DISTRACTOR","0: NULL",1,3491,2,"canta","S05_C2",747,1.3793,"La amiga cantó la ópera",550,621,707,833,847,934,1618,"cantó",2,"ims",83
"471","ims10",59,103,6,0.6,0,0,4,0.4,"1: IA_TARGET","2: IA_DISTRACTOR","0: NULL",1,2544,2,"canta","S05_C2",747,1.3793,"La amiga cantó la ópera",550,621,707,833,847,934,1618,"cantó",4,"ims",83
"472","ims12",96,103,0,0,0,0,10,1,"1: IA_TARGET","2: IA_DISTRACTOR","0: NULL",1,2217,2,"canta","S05_C2",747,1.3793,"La amiga cantó la ópera",550,621,707,833,847,934,1618,"cantó",2,"ims",83
"473","ims14",39,103,0,0,10,1,0,0,"1: IA_TARGET","2: IA_DISTRACTOR","0: NULL",1,2460,2,"canta","S05_C2",747,1.3793,"La amiga cantó la ópera",550,621,707,833,847,934,1618,"cantó",4,"ims",83
"474","mon02",70,103,0,0,10,1,0,0,"1: IA_TARGET","2: IA_DISTRACTOR","0: NULL",1,2139,2,"canta","S05_C2",747,1.3793,"La amiga cantó la ópera",550,621,707,833,847,934,1618,"cantó",2,"mon",83
"475","mon04",81,103,0,0,10,1,0,0,"1: IA_TARGET","2: IA_DISTRACTOR","0: NULL",1,2195,2,"canta","S05_C2",747,1.3793,"La amiga cantó la ópera",550,621,707,833,847,934,1618,"cantó",4,"mon",83
"476","mon06",57,103,0,0,10,1,0,0,"1: IA_TARGET","2: IA_DISTRACTOR","0: NULL",1,2131,2,"canta","S05_C2",747,1.3793,"La amiga cantó la ópera",550,621,707,833,847,934,1618,"cantó",2,"mon",83
"477","mon08",80,103,0,0,0,0,10,1,"1: IA_TARGET","2: IA_DISTRACTOR","0: NULL",1,2131,2,"canta","S05_C2",747,1.3793,"La amiga cantó la ópera",550,621,707,833,847,934,1618,"cantó",4,"mon",83
"478","mon10",77,103,0,0,0,0,10,1,"1: IA_TARGET","2: IA_DISTRACTOR","0: NULL",1,2072,2,"canta","S05_C2",747,1.3793,"La amiga cantó la ópera",550,621,707,833,847,934,1618,"cantó",2,"mon",83
"479","mon12",38,103,0,0,10,1,0,0,"1: IA_TARGET","2: IA_DISTRACTOR","0: NULL",1,2412,2,"canta","S05_C2",747,1.3793,"La amiga cantó la ópera",550,621,707,833,847,934,1618,"cantó",4,"mon",83
"480","mon14",94,103,0,0,10,1,0,0,"1: IA_TARGET","2: IA_DISTRACTOR","0: NULL",1,2116,2,"canta","S05_C2",747,1.3793,"La amiga cantó la ópera",550,621,707,833,847,934,1618,"cantó",2,"mon",83
"481","mon16",75,103,0,0,0,0,10,1,"1: IA_TARGET","2: IA_DISTRACTOR","0: NULL",1,2284,2,"canta","S05_C2",747,1.3793,"La amiga cantó la ópera",550,621,707,833,847,934,1618,"cantó",4,"mon",83
"482","mon18",84,103,0,0,0,0,10,1,"1: IA_TARGET","2: IA_DISTRACTOR","0: NULL",1,2008,2,"canta","S05_C2",747,1.3793,"La amiga cantó la ópera",550,621,707,833,847,934,1618,"cantó",2,"mon",83
"483","mon20",45,103,10,1,0,0,0,0,"1: IA_TARGET","2: IA_DISTRACTOR","0: NULL",1,2424,2,"canta","S05_C2",747,1.3793,"La amiga cantó la ópera",550,621,707,833,847,934,1618,"cantó",4,"mon",83
"484","mon22",25,103,0,0,0,0,10,1,"1: IA_TARGET","2: IA_DISTRACTOR","0: NULL",1,3143,2,"canta","S05_C2",747,1.3793,"La amiga cantó la ópera",550,621,707,833,847,934,1618,"cantó",2,"mon",83
"485","mon24",27,103,0,0,0,0,10,1,"1: IA_TARGET","2: IA_DISTRACTOR","0: NULL",1,2278,2,"canta","S05_C2",747,1.3793,"La amiga cantó la ópera",550,621,707,833,847,934,1618,"cantó",4,"mon",83
"486","mon26",91,103,0,0,10,1,0,0,"1: IA_TARGET","2: IA_DISTRACTOR","0: NULL",1,2009,2,"canta","S05_C2",747,1.3793,"La amiga cantó la ópera",550,621,707,833,847,934,1618,"cantó",2,"mon",83
"487","mon28",30,103,0,0,10,1,0,0,"1: IA_TARGET","2: IA_DISTRACTOR","0: NULL",1,2035,2,"canta","S05_C2",747,1.3793,"La amiga cantó la ópera",550,621,707,833,847,934,1618,"cantó",4,"mon",83
"488","mon30",38,103,3,0.3,0,0,7,0.7,"1: IA_TARGET","2: IA_DISTRACTOR","0: NULL",1,2009,2,"canta","S05_C2",747,1.3793,"La amiga cantó la ópera",550,621,707,833,847,934,1618,"cantó",2,"mon",83
"489","aes02",47,130,0,0,0,0,10,1,"1: IA_TARGET","2: IA_DISTRACTOR","0: NULL",1,2662,1,"buscó","S06_C1",15229,1.3434,"La maestra busca la información",847,901,987,1100,1132,1204,2188,"busca",4,"aes",110
"490","aes04",14,130,0,0,0,0,10,1,"1: IA_TARGET","2: IA_DISTRACTOR","0: NULL",1,2277,1,"buscó","S06_C1",15229,1.3434,"La maestra busca la información",847,901,987,1100,1132,1204,2188,"busca",2,"aes",110
"491","aes06",87,130,0,0,10,1,0,0,"1: IA_TARGET","2: IA_DISTRACTOR","0: NULL",1,2630,1,"buscó","S06_C1",15229,1.3434,"La maestra busca la información",847,901,987,1100,1132,1204,2188,"busca",4,"aes",110
"492","aes08",83,130,0,0,0,0,10,1,"1: IA_TARGET","2: IA_DISTRACTOR","0: NULL",1,2148,1,"buscó","S06_C1",15229,1.3434,"La maestra busca la información",847,901,987,1100,1132,1204,2188,"busca",2,"aes",110
"493","aes10",48,130,0,0,10,1,0,0,"1: IA_TARGET","2: IA_DISTRACTOR","0: NULL",1,3582,1,"buscó","S06_C1",15229,1.3434,"La maestra busca la información",847,901,987,1100,1132,1204,2188,"busca",4,"aes",110
"494","aes12",40,130,0,0,0,0,10,1,"1: IA_TARGET","2: IA_DISTRACTOR","0: NULL",1,2254,1,"buscó","S06_C1",15229,1.3434,"La maestra busca la información",847,901,987,1100,1132,1204,2188,"busca",2,"aes",110
"495","aes14",92,130,0,0,0,0,10,1,"1: IA_TARGET","2: IA_DISTRACTOR","0: NULL",1,2341,1,"buscó","S06_C1",15229,1.3434,"La maestra busca la información",847,901,987,1100,1132,1204,2188,"busca",4,"aes",110
"496","aes16",44,130,10,1,0,0,0,0,"1: IA_TARGET","2: IA_DISTRACTOR","0: NULL",1,2922,1,"buscó","S06_C1",15229,1.3434,"La maestra busca la información",847,901,987,1100,1132,1204,2188,"busca",2,"aes",110
"497","aes18",93,130,2,0.2,0,0,8,0.8,"1: IA_TARGET","2: IA_DISTRACTOR","0: NULL",1,2369,1,"buscó","S06_C1",15229,1.3434,"La maestra busca la información",847,901,987,1100,1132,1204,2188,"busca",4,"aes",110
"498","aes20",95,130,0,0,0,0,10,1,"1: IA_TARGET","2: IA_DISTRACTOR","0: NULL",1,2217,1,"buscó","S06_C1",15229,1.3434,"La maestra busca la información",847,901,987,1100,1132,1204,2188,"busca",2,"aes",110
